loggingTime,loggingSample,identifierForVendor,deviceID,locationTimestamp_since1970,locationLatitude,locationLongitude,locationAltitude,locationSpeed,locationCourse,locationVerticalAccuracy,locationHorizontalAccuracy,locationFloor,locationHeadingTimestamp_since1970,locationHeadingX,locationHeadingY,locationHeadingZ,locationTrueHeading,locationMagneticHeading,locationHeadingAccuracy,accelerometerTimestamp_sinceReboot,accelerometerAccelerationX,accelerometerAccelerationY,accelerometerAccelerationZ,gyroTimestamp_sinceReboot,gyroRotationX,gyroRotationY,gyroRotationZ,magnetometerTimestamp_sinceReboot,magnetometerX,magnetometerY,magnetometerZ,motionTimestamp_sinceReboot,motionYaw,motionRoll,motionPitch,motionRotationRateX,motionRotationRateY,motionRotationRateZ,motionUserAccelerationX,motionUserAccelerationY,motionUserAccelerationZ,motionAttitudeReferenceFrame,motionQuaternionX,motionQuaternionY,motionQuaternionZ,motionQuaternionW,motionGravityX,motionGravityY,motionGravityZ,motionMagneticFieldX,motionMagneticFieldY,motionMagneticFieldZ,motionMagneticFieldCalibrationAccuracy,activityTimestamp_sinceReboot,activity,activityActivityConfidence,activityActivityStartDate,pedometerStartDate,pedometerNumberofSteps,pedometerAverageActivePace,pedometerCurrentPace,pedometerCurrentCadence,pedometerDistance,pedometerFloorAscended,pedometerFloorDescended,pedometerEndDate,altimeterTimestamp_sinceReboot,altimeterReset,altimeterRelativeAltitude,altimeterPressure,IP_en0,IP_pdp_ip0,deviceOrientation,batteryState,batteryLevel,avAudioRecorderPeakPower,avAudioRecorderAveragePower,label
1561243432.386987,1,0,0,1561243431.989766,4.602332417857463,-74.06497604220553,2652.386,0,225,4,10,-9999,1561243432.362747,-10.46944046020508,-23.42544937133789,22.635009765625,119.7158660888672,127.2595520019531,20,65532.26595916667,-0.93719482421875,-0.3738861083984375,-0.017303466796875,65532.26089416667,-0.01627218057649315,-0.01839232312030523,-0.02032684333613879,65532.24011116667,27.63345336914062,-21.68211364746094,-512.1998291015625,65532.26089416667,-1.269228974842183,-1.563376951540141,0.3738232917059822,-0.01742270216345787,-0.02382841892540455,-0.02293314039707184,-0.002559423446655273,-0.007640689611434937,-0.009938836097717285,1,-0.304180920124054,-0.6356260776519775,-0.5188657641410828,0.4839749336242676,-0.9309123158454895,-0.36517733335495,-0.00690691452473402,0,0,0,-1,65530.960688625,2,0,1561243431.082091,1561243107.271691,28,1.054203,0,0,24.53997,0,0,1561243350.380748,65529.350465,0,-3.400635,74.57969,2650634390,177292352,1,1,0.15,-25.67633,-29.84013,5
1561243432.39871,2,0,0,1561243431.989766,4.602332417857463,-74.06497604220553,2652.386,0,225,4,10,-9999,1561243432.390822,-10.43517684936523,-23.51203536987305,22.92303466796875,119.7338409423828,127.2775268554688,20,65532.28622316667,-0.932830810546875,-0.3689117431640625,-0.0223541259765625,65532.28115716667,-0.06946323071253677,0.07763886894297102,-0.01758671689055627,65532.26022216667,27.81257629394531,-21.67323303222656,-512.0714111328125,65532.28115716667,-1.27035039831433,-1.56224325515674,0.3742287666435086,-0.07061374932527542,0.07220277190208435,-0.02019301429390907,-0.005355656147003174,-0.0086517333984375,-0.01253151893615723,1,-0.3041133284568787,-0.6352437138557434,-0.5194066166877747,0.4839393198490143,-0.9307557940483093,-0.3655547797679901,-0.007961015217006207,0,0,0,-1,65530.960688625,2,0,1561243431.082091,1561243107.271691,28,1.054203,0,0,24.53997,0,0,1561243350.380748,65529.350465,0,-3.400635,74.57969,2650634390,177292352,1,1,0.15,-25.67633,-30.46382,5
1561243432.426063,3,0,0,1561243431.989766,4.602332417857463,-74.06497604220553,2652.386,0,225,4,10,-9999,1561243432.417365,-10.39065742492676,-23.48241806030273,22.7608642578125,119.8158493041992,127.3595352172852,20,65532.30648716667,-0.9189300537109375,-0.3705596923828125,-0.024993896484375,65532.30139016667,-0.02271942725946598,0.04348968691710297,-0.01419970861619349,65532.28030316667,27.71714782714844,-21.43975830078125,-512.1688232421875,65532.30139016667,-1.27154851071769,-1.560435931217695,0.3746149080994768,-0.02386995032429695,0.03805359080433846,-0.01680600456893444,0.006251752376556396,-0.00246351957321167,-0.01431459188461304,1,-0.3039005696773529,-0.6346838474273682,-0.520063579082489,0.4841019809246063,-0.9305986762046814,-0.3659141659736633,-0.009641715325415134,0,0,0,-1,65530.960688625,2,0,1561243431.082091,1561243107.271691,28,1.054203,0,0,24.53997,0,0,1561243350.380748,65529.350465,0,-3.400635,74.57969,2650634390,177292352,1,1,0.15,-25.67633,-30.71038,5
1561243432.439641,4,0,0,1561243431.989766,4.602332417857463,-74.06497604220553,2652.386,0,225,4,10,-9999,1561243432.417365,-10.39065742492676,-23.48241806030273,22.7608642578125,119.8158493041992,127.3595352172852,20,65532.32672016667,-0.9168701171875,-0.3682708740234375,-0.023406982421875,65532.32165416667,0.03262505493401571,-0.003050651028685767,-0.01373152489655756,65532.30038316667,27.76643371582031,-21.4210205078125,-512.3189697265625,65532.32165416667,-1.271388525271968,-1.56031641781632,0.3749595194473745,0.0314745306968689,-0.008486747741699219,-0.01633781939744949,0.01245677471160889,-0.001761347055435181,-0.01507443189620972,1,-0.3037085235118866,-0.6347324848175049,-0.5201252698898315,0.4840923547744751,-0.9304712414741516,-0.3662348687648773,-0.009751611389219761,0,0,0,-1,65530.960688625,2,0,1561243431.082091,1561243107.271691,28,1.054203,0,0,24.53997,0,0,1561243350.380748,65529.350465,0,-3.400635,74.57969,2650634390,177292352,1,1,0.15,-25.67633,-30.71038,5
1561243432.459963,5,0,0,1561243431.989766,4.602332417857463,-74.06497604220553,2652.386,0,225,4,10,-9999,1561243432.441556,-10.45505523681641,-23.29048156738281,23.0667724609375,119.7868499755859,127.3305358886719,20,65532.34698416667,-0.9166717529296875,-0.3693695068359375,-0.0222320556640625,65532.34191816667,0.0224443227188608,0.001253816241209305,0.0009121326733521391,65532.32049416667,27.7386474609375,-21.35028076171875,-512.2060546875,65532.34191816667,-1.270728180968816,-1.56065080596229,0.3751724827709707,0.02129380032420158,-0.004182280041277409,-0.001694163307547569,0.01515913009643555,-0.002310872077941895,-0.01331120729446411,1,-0.3035176992416382,-0.6349465847015381,-0.5199655294418335,0.4841029942035675,-0.930396556854248,-0.3664330244064331,-0.009439681656658649,0,0,0,-1,65530.960688625,2,0,1561243431.082091,1561243107.271691,28,1.054203,0,0,24.53997,0,0,1561243350.380748,65529.350465,0,-3.400635,74.57969,2650634390,177292352,1,1,0.15,-25.67633,-30.7795,5
1561243432.479743,6,0,0,1561243431.989766,4.602332417857463,-74.06497604220553,2652.386,0,225,4,10,-9999,1561243432.467821,-10.44827651977539,-23.26894760131836,22.8648681640625,119.7523956298828,127.2960815429688,20,65532.36724716667,-0.92364501953125,-0.369232177734375,-0.01654052734375,65532.36218116667,0.02886174199762474,-0.004041080638086236,0.006844856633721658,65532.34057516667,27.81362915039062,-21.29573059082031,-512.4845581054688,65532.36218116667,-1.270288744356963,-1.560966582903192,0.3751439454108381,0.02771122008562088,-0.009477177634835243,0.004238560795783997,0.009786128997802734,-0.003985345363616943,-0.009774923324584961,1,-0.3034694194793701,-0.6350852847099304,-0.5198044180870056,0.4841242432594299,-0.930409848690033,-0.3664064705371857,-0.00914598535746336,0,0,0,-1,65530.960688625,2,0,1561243431.082091,1561243107.271691,28,1.054203,0,0,24.53997,0,0,1561243350.380748,65529.350465,0,-3.400635,74.57969,2650634390,177292352,1,1,0.15,-25.67633,-31.76357,5
1561243432.508421,7,0,0,1561243431.989766,4.602332417857463,-74.06497604220553,2652.386,0,225,4,10,-9999,1561243432.492545,-10.59311485290527,-23.24414825439453,22.717529296875,119.7092819213867,127.2529678344727,20,65532.38751116667,-0.921234130859375,-0.36920166015625,-0.00836181640625,65532.38244516667,0.02528991034361046,0.02214817920564398,-0.00125967519560748,65532.36065516667,27.73040771484375,-21.1356201171875,-512.4126586914062,65532.38244516667,-1.269637105334366,-1.561057405150011,0.3751082584688264,0.02413938753306866,0.01671208254992962,-0.003865971229970455,0.0061684250831604,-0.002095997333526611,-0.002397716045379639,1,-0.3032974898815155,-0.6352006196975708,-0.5196243524551392,0.4842739701271057,-0.9304237961769104,-0.3663732707500458,-0.009061610326170921,0,0,0,-1,65530.960688625,2,0,1561243431.082091,1561243107.271691,28,1.054203,0,0,24.53997,0,0,1561243350.380748,65529.350465,0,-3.400635,74.57969,2650634390,177292352,1,1,0.15,-25.67633,-28.2599,5
1561243432.520391,8,0,0,1561243431.989766,4.602332417857463,-74.06497604220553,2652.386,0,225,4,10,-9999,1561243432.518759,-10.55252075195312,-23.26171112060547,22.7855224609375,119.7194213867188,127.2631072998047,20,65532.40777516667,-0.9153900146484375,-0.36956787109375,-0.0100555419921875,65532.40270916667,-0.03113368472357133,0.004134024960130002,0.00141999749323025,65532.38073616667,27.80570983886719,-21.43681335449219,-512.186767578125,65532.40270916667,-1.269740836207269,-1.560677403516298,0.3752251838848665,-0.0322842076420784,-0.001302071381360292,-0.00118629855569452,0.01166105270385742,-0.003482550382614136,0.001464903354644775,1,-0.3031942546367645,-0.6351109147071838,-0.5197350382804871,0.4843375682830811,-0.9303774833679199,-0.3664820492267609,-0.009414739906787872,0,0,0,-1,65530.960688625,2,0,1561243431.082091,1561243107.271691,28,1.054203,0,0,24.53997,0,0,1561243350.380748,65529.350465,0,-3.400635,74.57969,2650634390,177292352,1,1,0.15,-25.67633,-28.98696,5
1561243432.54064,9,0,0,1561243431.989766,4.602332417857463,-74.06497604220553,2652.386,0,225,4,10,-9999,1561243432.518759,-10.55252075195312,-23.26171112060547,22.7855224609375,119.7194213867188,127.2631072998047,20,65532.42803816667,-0.9195709228515625,-0.3700103759765625,-0.01690673828125,65532.42294216667,-0.02420254167053111,-0.04400021489807115,0.00368661389699669,65532.40084716667,27.58049011230469,-21.18289184570312,-512.4805908203125,65532.42294216667,-1.270557749232671,-1.560921346581063,0.3752103300835909,-0.02535306476056576,-0.04943631216883659,0.001080317888408899,0.01604825258255005,-0.004854410886764526,-0.006696522235870361,1,-0.3035217523574829,-0.6350437998771667,-0.5198922753334045,0.4840517938137054,-0.930385410785675,-0.366468220949173,-0.009187836199998856,0,0,0,-1,65530.960688625,2,0,1561243431.082091,1561243107.271691,28,1.054203,0,0,24.53997,0,0,1561243350.380748,65529.350465,0,-3.400635,74.57969,2650634390,177292352,1,1,0.15,-25.67633,-29.41854,5
1561243432.560771,10,0,0,1561243431.989766,4.602332417857463,-74.06497604220553,2652.386,0,225,4,10,-9999,1561243432.542829,-10.7260913848877,-23.21809387207031,22.77935791015625,119.7694320678711,127.313117980957,20,65532.44827116667,-0.934356689453125,-0.3671112060546875,-0.0257720947265625,65532.44320616667,0.01277944480685423,-0.0009600695729735653,0.007105580104440416,65532.42092816667,27.9189453125,-21.32853698730469,-512.2987670898438,65532.44320616667,-1.270665581207211,-1.561454425279893,0.375209102685846,0.01162892300635576,-0.006396166048943996,0.004499284084886312,0.003342747688293457,-0.001162916421890259,-0.01036638021469116,1,-0.3036949932575226,-0.6351562142372131,-0.5198371410369873,0.4838546812534332,-0.930390477180481,-0.3664670884609222,-0.008691868744790554,0,0,0,-1,65530.960688625,2,0,1561243431.082091,1561243107.271691,28,1.054203,0,0,24.53997,0,0,1561243350.380748,65529.350465,0,-3.400635,74.57969,2650634390,177292352,1,1,0.15,-25.67633,-30.18468,5
1561243432.591685,11,0,0,1561243431.989766,4.602332417857463,-74.06497604220553,2652.386,0,225,4,10,-9999,1561243432.542829,-10.7260913848877,-23.21809387207031,22.77935791015625,119.7694320678711,127.313117980957,20,65532.46853516667,-0.9338226318359375,-0.3671112060546875,-0.0253448486328125,65532.46346916667,0.02420121008998607,0.05502090812103706,0.003355849289608848,65532.44100816667,27.52986145019531,-21.43861389160156,-512.5980224609375,65532.46346916667,-1.270259488011765,-1.561076520930476,0.3751430793020959,0.02305068820714951,0.04958480969071388,0.0007495533209294081,-0.005105018615722656,-0.002216130495071411,-0.01848316192626953,1,-0.3034889400005341,-0.6351162195205688,-0.5197804570198059,0.4840972721576691,-0.9304112792015076,-0.3664056658744812,-0.00904370192438364,0,0,0,-1,65530.960688625,2,0,1561243431.082091,1561243107.271691,28,1.054203,0,0,24.53997,0,0,1561243350.380748,65529.350465,0,-3.400635,74.57969,2650634390,177292352,1,1,0.15,-25.67633,-30.79105,5
1561243432.601279,12,0,0,1561243431.989766,4.602332417857463,-74.06497604220553,2652.386,0,225,4,10,-9999,1561243432.597909,-10.34794235229492,-23.31666946411133,22.80047607421875,119.7560272216797,127.2997131347656,20,65532.48879916667,-0.9207916259765625,-0.36865234375,-0.0167236328125,65532.48373316667,0.03229269242997382,0.04385720314753391,0.002729207485113204,65532.46111916667,27.80502319335938,-21.20852661132812,-512.27587890625,65532.48373316667,-1.269711731969,-1.560317088998843,0.3751955044585821,0.03114217147231102,0.03842110559344292,0.0001229115296155214,0.00118565559387207,-0.001587539911270142,-0.0130770206451416,1,-0.3031008839607239,-0.6350234746932983,-0.5197755098342896,0.4844671785831451,-0.9303848743438721,-0.3664544522762299,-0.009750081226229668,0,0,0,-1,65530.960688625,2,0,1561243431.082091,1561243107.271691,28,1.054203,0,0,24.53997,0,0,1561243350.380748,65529.350465,0,-3.400635,74.57969,2650634390,177292352,1,1,0.15,-25.67633,-30.79105,5
1561243432.621607,13,0,0,1561243431.989766,4.602332417857463,-74.06497604220553,2652.386,0,225,4,10,-9999,1561243432.619762,-10.50837326049805,-23.09577178955078,22.7479248046875,119.6615371704102,127.2052230834961,20,65532.50906216667,-0.9122772216796875,-0.3660736083984375,-0.0081329345703125,65532.50399716667,0.04569052324194445,-0.01631878589556954,0.0140622895039454,65532.48120016667,27.37847900390625,-21.08255004882812,-512.412841796875,65532.50399716667,-1.268876144155505,-1.560414738877855,0.3751542840862534,0.04453999921679497,-0.02175488136708736,0.01145599316805601,0.01507198810577393,-0.0008935034275054932,-0.002059400081634521,1,-0.3028741180896759,-0.6351673603057861,-0.5195484161376953,0.4846639037132263,-0.9304009079933167,-0.3664160966873169,-0.009659386239945889,0,0,0,-1,65530.960688625,2,0,1561243431.082091,1561243107.271691,28,1.054203,0,0,24.53997,0,0,1561243350.380748,65529.350465,0,-3.400635,74.57969,2650634390,177292352,1,1,0.15,-25.67633,-31.43938,5
1561243432.64191,14,0,0,1561243431.989766,4.602332417857463,-74.06497604220553,2652.386,0,225,4,10,-9999,1561243432.619762,-10.50837326049805,-23.09577178955078,22.7479248046875,119.6615371704102,127.2052230834961,20,65532.52932616667,-0.9196319580078125,-0.36883544921875,-0.0012664794921875,65532.52423016667,0.04002278381003781,-0.07332374902871563,0.02958186075638216,65532.50128016667,27.81063842773438,-21.23287963867188,-512.4171752929688,65532.52423016667,-1.26792237362283,-1.561791119120611,0.3747444535381661,0.03887226060032845,-0.07875984907150269,0.02697556465864182,0.01767599582672119,-0.0007865726947784424,0.00407719612121582,1,-0.3030595779418945,-0.6355822682380676,-0.5190107822418213,0.4845802485942841,-0.9305636286735535,-0.3660347163677216,-0.008380144834518433,0,0,0,-1,65530.960688625,2,0,1561243431.082091,1561243107.271691,28,1.054203,0,0,24.53997,0,0,1561243350.380748,65529.350465,0,-3.400635,74.57969,2650634390,177292352,1,1,0.15,-25.67633,-32.13713,5
1561243432.66887,15,0,0,1561243431.989766,4.602332417857463,-74.06497604220553,2652.386,0,225,4,10,-9999,1561243432.644823,-10.37694358825684,-23.01217651367188,22.90863037109375,119.5986480712891,127.142333984375,20,65532.54955916667,-0.9337005615234375,-0.3786468505859375,-0.0045928955078125,65532.54449316667,0.02148824788752235,-0.05008873378221031,0.003281813411304645,65532.52139216667,27.45005798339844,-20.96272277832031,-512.1732177734375,65532.54449316667,-1.267321211773345,-1.563580799183653,0.3744833805651048,0.02033772505819798,-0.05552482977509499,0.0006755173671990633,0.005593180656433105,-0.007667094469070435,0.00216829776763916,1,-0.3034162223339081,-0.636066734790802,-0.5185312628746033,0.4842345118522644,-0.9306725263595581,-0.3657917678356171,-0.006715409923344851,0,0,0,-1,65530.960688625,2,0,1561243431.082091,1561243107.271691,28,1.054203,0,0,24.53997,0,0,1561243350.380748,65529.350465,0,-3.400635,74.57969,2650634390,177292352,1,1,0.15,-25.67633,-32.20079,5
1561243432.682325,16,0,0,1561243431.989766,4.602332417857463,-74.06497604220553,2652.386,0,225,4,10,-9999,1561243432.671527,-10.35256004333496,-22.99148178100586,22.9798583984375,119.5777587890625,127.1214447021484,20,65532.56982316667,-0.9400482177734375,-0.375732421875,-0.0149993896484375,65532.56475716667,-0.01225853049763473,0.06314647892297783,-0.01256612560353888,65532.54147216667,27.81417846679688,-21.1866455078125,-512.0895385742188,65532.56475716667,-1.267313513866207,-1.563536057389001,0.3746646690762896,-0.01340905204415321,0.05771038308739662,-0.01517242193222046,-0.009121835231781006,-0.01203027367591858,-0.00342106819152832,1,-0.303344190120697,-0.6360849142074585,-0.5185796618461609,0.484203964471817,-0.930605947971344,-0.3659604787826538,-0.00675656832754612,0,0,0,-1,65530.960688625,2,0,1561243431.082091,1561243107.271691,28,1.054203,0,0,24.53997,0,0,1561243350.380748,65529.350465,0,-3.400635,74.57969,2650634390,177292352,1,1,0.15,-25.67633,-32.9167,5
1561243432.702396,17,0,0,1561243431.989766,4.602332417857463,-74.06497604220553,2652.386,0,225,4,10,-9999,1561243432.694672,-10.5245418548584,-23.15993881225586,22.937744140625,119.5996704101562,127.1433563232422,20,65532.59008716667,-0.92724609375,-0.364959716796875,-0.012420654296875,65532.58502116667,-0.0008444883816641264,0.0799302527448752,-0.01253017292882282,65532.56155316667,27.58648681640625,-20.97518920898438,-512.1612548828125,65532.58502116667,-1.267614327438194,-1.561787305071667,0.3749915522232383,-0.001995010068640113,0.07449415326118469,-0.01513646915555,-0.005653619766235352,-0.004798561334609985,-0.006128191947937012,1,-0.3028816282749176,-0.6356660127639771,-0.5189958810806274,0.4845975935459137,-0.9304730892181396,-0.366264671087265,-0.008382879197597504,0,0,0,-1,65530.960688625,2,0,1561243431.082091,1561243107.271691,28,1.054203,0,0,24.53997,0,0,1561243350.380748,65529.350465,0,-3.400635,74.57969,2650634390,177292352,1,1,0.15,-25.67633,-33.63544,5
1561243432.724673,18,0,0,1561243431.989766,4.602332417857463,-74.06497604220553,2652.386,0,225,4,10,-9999,1561243432.721287,-10.3996524810791,-23.22311401367188,22.91900634765625,119.5700149536133,127.1137008666992,20,65532.61035016667,-0.91339111328125,-0.36376953125,-0.002410888671875,65532.60528416667,0.03414225780703385,-0.01797314156472676,0.009200156301787736,65532.58166416667,27.84742736816406,-20.84121704101562,-512.3319091796875,65532.60528416667,-1.267213352552018,-1.561247467171764,0.3751443583239117,0.03299173340201378,-0.02340923808515072,0.006593860685825348,0.01288604736328125,0.001920133829116821,0.002979516983032227,1,-0.3025652468204498,-0.6356193423271179,-0.5190169811248779,0.4848336279392242,-0.9304122924804688,-0.3664068579673767,-0.008884645998477936,0,0,0,-1,65530.960688625,2,0,1561243431.082091,1561243107.271691,28,1.054203,0,0,24.53997,0,0,1561243350.380748,65529.350465,0,-3.400635,74.57969,2650634390,177292352,1,1,0.15,-25.67633,-34.49059,5
1561243432.752263,19,0,0,1561243431.989766,4.602332417857463,-74.06497604220553,2652.386,0,225,4,10,-9999,1561243432.745553,-10.50536918640137,-23.2043342590332,22.9453125,119.5232543945312,127.0669403076172,20,65532.63061416667,-0.9256439208984375,-0.367401123046875,-0.0011444091796875,65532.62554816667,0.02942952794202963,-0.09361384074181134,0.02269386091300122,65532.60174416667,27.80885314941406,-21.42304992675781,-512.115966796875,65532.62554816667,-1.266460662132223,-1.563017173114755,0.3748732577577515,0.02827900461852551,-0.09904994070529938,0.02008756622672081,0.01379299163818359,0.002430856227874756,0.006811618804931641,1,-0.3028717339038849,-0.6361204981803894,-0.5185017585754395,0.4845361411571503,-0.9305257797241211,-0.3661545813083649,-0.007238849066197872,0,0,0,-1,65530.960688625,2,0,1561243431.082091,1561243107.271691,28,1.054203,0,0,24.53997,0,0,1561243350.380748,65529.350465,0,-3.400635,74.57969,2650634390,177292352,1,1,0.15,-25.67633,-35.21119,5
1561243432.76348,20,0,0,1561243431.989766,4.602332417857463,-74.06497604220553,2652.386,0,225,4,10,-9999,1561243432.745553,-10.50536918640137,-23.2043342590332,22.9453125,119.5232543945312,127.0669403076172,20,65532.65087816667,-0.939178466796875,-0.372467041015625,-0.0042266845703125,65532.64578116667,0.00253213356444734,-0.02821033279499136,0.0003584614827246654,65532.62182516667,27.859375,-21.30842590332031,-512.18017578125,65532.64578116667,-1.26617544176585,-1.56463011912746,0.3747031695635272,0.001381611917167902,-0.03364642709493637,-0.002247834578156471,-0.003117203712463379,-0.005478888750076294,0.002732396125793457,1,-0.3032533824443817,-0.6365282535552979,-0.5181474685668945,0.4841408431529999,-0.9305986166000366,-0.3659963011741638,-0.005738337058573961,0,0,0,-1,65530.960688625,2,0,1561243431.082091,1561243107.271691,28,1.054203,0,0,24.53997,0,0,1561243350.380748,65529.350465,0,-3.400635,74.57969,2650634390,177292352,1,1,0.15,-25.67633,-35.21119,5
1561243432.783635,21,0,0,1561243431.989766,4.602332417857463,-74.06497604220553,2652.386,0,225,4,10,-9999,1561243432.772247,-10.50669097900391,-23.24807739257812,23.00775146484375,119.5215072631836,127.0651931762695,20,65532.67111116667,-0.9326629638671875,-0.3688201904296875,-0.00372314453125,65532.66604516667,0.001529187097923499,0.03562217642479088,-0.01262072040588551,65532.64190516667,27.71034240722656,-21.24603271484375,-512.0541381835938,65532.66604516667,-1.266243018611697,-1.564449911382781,0.3749176990859744,0.000378665397875011,0.03018607944250107,-0.01522701606154442,-0.00795745849609375,-0.004440039396286011,0.0005344748497009277,1,-0.3031595647335052,-0.6365072727203369,-0.5182426571846008,0.4841254055500031,-0.9305191040039062,-0.366195946931839,-0.005905540194362402,0,0,0,-1,65530.960688625,2,0,1561243431.082091,1561243107.271691,28,1.054203,0,0,24.53997,0,0,1561243350.380748,65529.350465,0,-3.400635,74.57969,2650634390,177292352,1,1,0.15,-25.67633,-35.69484,5
1561243432.830449,22,0,0,1561243431.989766,4.602332417857463,-74.06497604220553,2652.386,0,225,4,10,-9999,1561243432.822676,-10.38829231262207,-23.24435043334961,23.056640625,119.4931488037109,127.0368347167969,20,65532.69137416667,-0.9190216064453125,-0.365966796875,0.0031890869140625,65532.68630916667,0.02500628368751702,0.03015310881020416,0.0004466121148062883,65532.68209716667,27.79652404785156,-21.28341674804688,-511.9739990234375,65532.68630916667,-1.265950182271722,-1.563904834244154,0.3751431928726814,0.02385576069355011,0.02471701242029667,-0.002159683965146542,0.004072070121765137,0.001385033130645752,0.006488502025604248,1,-0.302852988243103,-0.6364542245864868,-0.5183084607124329,0.4843165874481201,-0.9304332137107849,-0.3664057552814484,-0.006412175018340349,0,0,0,-1,65530.960688625,2,0,1561243431.082091,1561243107.271691,28,1.054203,0,0,24.53997,0,0,1561243350.380748,65529.350465,0,-3.400635,74.57969,2650634390,177292352,1,1,0.15,-25.67633,-30.6294,5
1561243432.832981,23,0,0,1561243431.989766,4.602332417857463,-74.06497604220553,2652.386,0,225,4,10,-9999,1561243432.822676,-10.38829231262207,-23.24435043334961,23.056640625,119.4931488037109,127.0368347167969,20,65532.71163816667,-0.9212646484375,-0.37115478515625,0.0035400390625,65532.70657216667,-0.004695685634027713,-0.01310328519540787,0.01906237445056917,65532.70217816667,27.8446044921875,-21.19036865234375,-512.04638671875,65532.70657216667,-1.265699470255644,-1.563901086799835,0.3749974527054056,-0.005846207030117512,-0.01853938028216362,0.01645607873797417,0.01347911357879639,-0.002046525478363037,0.01082581281661987,1,-0.3028188645839691,-0.6364689469337463,-0.5182133316993713,0.4844203293323517,-0.9304865598678589,-0.3662701547145844,-0.006416029762476683,0,0,0,-1,65530.960688625,2,0,1561243431.082091,1561243107.271691,28,1.054203,0,0,24.53997,0,0,1561243350.380748,65530.290929,0,-3.435059,74.58001,2650634390,177292352,1,1,0.15,-25.67633,-30.6294,5
1561243432.844412,24,0,0,1561243431.989766,4.602332417857463,-74.06497604220553,2652.386,0,225,4,10,-9999,1561243432.822676,-10.38829231262207,-23.24435043334961,23.056640625,119.4931488037109,127.0368347167969,20,65532.73190216667,-0.9376068115234375,-0.375396728515625,-0.0008087158203125,65532.72683616667,-0.01056875478597946,-0.04337170888081246,0.0009108010928070995,65532.72225816667,27.43505859375,-21.14311218261719,-512.3665161132812,65532.72683616667,-1.265951064308851,-1.564576418819485,0.3747418201408569,-0.01171927619725466,-0.04880780354142189,-0.001695494865998626,-0.0001867413520812988,-0.007960647344589233,0.009282469749450684,1,-0.3031556904315948,-0.6365551948547363,-0.5181105732917786,0.4842061102390289,-0.930584192276001,-0.3660322725772858,-0.005788222420960665,0,0,0,-1,65530.960688625,2,0,1561243431.082091,1561243107.271691,28,1.054203,0,0,24.53997,0,0,1561243350.380748,65530.290929,0,-3.435059,74.58001,2650634390,177292352,1,1,0.15,-25.67633,-30.95679,5
1561243432.865214,25,0,0,1561243431.989766,4.602332417857463,-74.06497604220553,2652.386,0,225,4,10,-9999,1561243432.846711,-10.29375839233398,-23.20341110229492,22.934814453125,119.5121612548828,127.0558471679688,20,65532.75216616667,-0.9379119873046875,-0.3738555908203125,-0.0102081298828125,65532.74710016667,-0.01596485178669801,-0.002561960968656227,-0.03595427261272376,65532.74236916667,27.75236511230469,-21.08355712890625,-511.989501953125,65532.74710016667,-1.266204294807073,-1.565201251449052,0.3751618283839133,-0.01711537316441536,-0.007998056709766388,-0.03856056556105614,-0.009858548641204834,-0.010743647813797,-0.0002720355987548828,1,-0.3032638728618622,-0.6367323398590088,-0.5181779861450195,0.4838331937789917,-0.9304338097572327,-0.366423100233078,-0.005205901805311441,0,0,0,-1,65530.960688625,2,0,1561243431.082091,1561243107.271691,28,1.054203,0,0,24.53997,0,0,1561243350.380748,65530.290929,0,-3.435059,74.58001,2650634390,177292352,1,1,0.15,-25.67633,-27.73,5
1561243432.919433,26,0,0,1561243431.989766,4.602332417857463,-74.06497604220553,2652.386,0,225,4,10,-9999,1561243432.897962,-10.30824279785156,-23.2346076965332,23.10287475585938,119.5696182250977,127.1133041381836,20,65532.77242916667,-0.9212799072265625,-0.3638458251953125,-0.005645751953125,65532.76733316667,-0.01784584246462097,0.06881741414819255,-0.02391465395669354,65532.76245016667,27.80662536621094,-21.07217407226562,-512.0744018554688,65532.76733316667,-1.266689115404018,-1.564399447204943,0.3758827154331325,-0.01899636536836624,0.06338131427764893,-0.02652094885706902,-0.0006517171859741211,-0.002199441194534302,-0.003586471080780029,1,-0.3029798567295074,-0.6365752816200256,-0.5185897946357727,0.4837765991687775,-0.9301649928092957,-0.3670937716960907,-0.005950234364718199,0,0,0,-1,65530.960688625,2,0,1561243431.082091,1561243107.271691,28,1.054203,0,0,24.53997,0,0,1561243350.380748,65530.290929,0,-3.435059,74.58001,2650634390,177292352,1,1,0.15,-25.67633,-28.55532,5
1561243432.922683,27,0,0,1561243431.989766,4.602332417857463,-74.06497604220553,2652.386,0,225,4,10,-9999,1561243432.897962,-10.30824279785156,-23.2346076965332,23.10287475585938,119.5696182250977,127.1133041381836,20,65532.79266216667,-0.9055633544921875,-0.3611602783203125,0.0013885498046875,65532.78759616667,-0.01403459262860858,0.01462128701675303,0.01571291674757651,65532.78253016667,27.7374267578125,-20.98606872558594,-512.2616577148438,65532.78759616667,-1.267031528157936,-1.563299935342248,0.3760382516044045,-0.01518511399626732,0.009185190312564373,0.01310662087053061,0.01954782009124756,0.008565336465835571,0.006591081619262695,1,-0.3027538657188416,-0.6362812519073486,-0.5188764333724976,0.4839975535869598,-0.9301008582115173,-0.3672384321689606,-0.006972530391067266,0,0,0,-1,65530.960688625,2,0,1561243431.082091,1561243107.271691,28,1.054203,0,0,24.53997,0,0,1561243350.380748,65530.290929,0,-3.435059,74.58001,2650634390,177292352,1,1,0.15,-25.67633,-28.55532,5
1561243432.925879,28,0,0,1561243431.989766,4.602332417857463,-74.06497604220553,2652.386,0,225,4,10,-9999,1561243432.92405,-10.44466781616211,-23.06598663330078,23.0206298828125,119.5877456665039,127.1314315795898,20,65532.81292616667,-0.923370361328125,-0.3671875,-0.003662109375,65532.80786016667,-0.007180414931071642,-0.07141878990098195,0.02337136909431738,65532.80261116667,27.86892700195312,-21.20217895507812,-512.1553955078125,65532.80786016667,-1.26729424050127,-1.564136331719572,0.3755922127511334,-0.008330936543643475,-0.0768548846244812,0.02076507359743118,0.01851165294647217,0.002840340137481689,0.004273056983947754,1,-0.3031970858573914,-0.6363754272460938,-0.5187063813209534,0.4837785065174103,-0.9302700161933899,-0.3668235242366791,-0.006195685360580683,0,0,0,-1,65530.960688625,2,0,1561243431.082091,1561243107.271691,28,1.054203,0,0,24.53997,0,0,1561243350.380748,65530.290929,0,-3.435059,74.58001,2650634390,177292352,1,1,0.15,-25.67633,-28.55532,5
1561243432.945799,29,0,0,1561243431.989766,4.602332417857463,-74.06497604220553,2652.386,0,225,4,10,-9999,1561243432.92405,-10.44466781616211,-23.06598663330078,23.0206298828125,119.5877456665039,127.1314315795898,20,65532.83319016667,-0.937225341796875,-0.3726654052734375,-0.016021728515625,65532.82812416667,-0.02107066422859792,-0.028803418769752,-0.005094627165321583,65532.82269216667,27.92173767089844,-21.33308410644531,-511.9341430664062,65532.82812416667,-1.267582311605694,-1.565339294697996,0.37546460948683,-0.02222118712961674,-0.0342395156621933,-0.007700922898948193,-0.003773808479309082,-0.002374768257141113,-0.004017353057861328,1,-0.3036415576934814,-0.6366029977798462,-0.518562912940979,0.4833537936210632,-0.9303234219551086,-0.3667048215866089,-0.005076855421066284,0,0,0,-1,65530.960688625,2,0,1561243431.082091,1561243107.271691,28,1.054203,0,0,24.53997,0,0,1561243350.380748,65530.290929,0,-3.435059,74.58001,2650634390,177292352,1,1,0.15,-26.23361,-29.09051,5
1561243432.991895,30,0,0,1561243431.989766,4.602332417857463,-74.06497604220553,2652.386,0,225,4,10,-9999,1561243432.974947,-10.47273826599121,-23.21426391601562,23.1484375,119.6618118286133,127.2054977416992,20,65532.85345316667,-0.9311065673828125,-0.3717041015625,-0.0185699462890625,65532.84838716667,-0.02840953724452928,0.05566166467931013,-0.02565875815458644,65532.84280316667,27.92349243164062,-21.17765808105469,-511.89111328125,65532.84838716667,-1.268212278913748,-1.564899397278817,0.3758880015731758,-0.02956005930900574,0.05022556707262993,-0.02826505526900291,-0.004847049713134766,-0.00751987099647522,-0.0134509801864624,1,-0.3035926222801208,-0.6364659667015076,-0.5188834667205811,0.4832209944725037,-0.9301658272743225,-0.3670986890792847,-0.005485185887664557,0,0,0,-1,65530.960688625,2,0,1561243431.082091,1561243107.271691,28,1.054203,0,0,24.53997,0,0,1561243350.380748,65530.290929,0,-3.435059,74.58001,2650634390,177292352,1,1,0.15,-27.34817,-27.34817,5
1561243432.994348,31,0,0,1561243431.989766,4.602332417857463,-74.06497604220553,2652.386,0,225,4,10,-9999,1561243432.974947,-10.47273826599121,-23.21426391601562,23.1484375,119.6618118286133,127.2054977416992,20,65532.87371716667,-0.918060302734375,-0.3633880615234375,-0.0118865966796875,65532.86862116667,-0.01367826167475598,0.04388569897119775,-0.01193042905133697,65532.86288316667,27.85887145996094,-21.05818176269531,-511.9500427246094,65532.86862116667,-1.268756194865917,-1.563620133794009,0.3763451860894326,-0.01482878345996141,0.03844960406422615,-0.01453672535717487,0.006497740745544434,7.700920104980469e-05,-0.007654070854187012,1,-0.3032874464988708,-0.6361444592475891,-0.5193185210227966,0.4833686649799347,-0.9299901723861694,-0.3675239086151123,-0.006673903670161963,0,0,0,-1,65530.960688625,2,0,1561243431.082091,1561243107.271691,28,1.054203,0,0,24.53997,0,0,1561243350.380748,65530.290929,0,-3.435059,74.58001,2650634390,177292352,1,1,0.15,-27.34817,-27.34817,5
1561243433.006438,32,0,0,1561243431.989766,4.602332417857463,-74.06497604220553,2652.386,0,225,4,10,-9999,1561243432.998607,-10.38845443725586,-23.14401626586914,23.08697509765625,119.6705322265625,127.2142181396484,20,65532.89395016667,-0.9192352294921875,-0.363983154296875,-0.000946044921875,65532.88888416667,0.01244868019946639,-0.01278423849681637,0.01062814327828822,65532.88296416667,27.93386840820312,-21.13081359863281,-512.1240234375,65532.88888416667,-1.268707199023272,-1.563431329515519,0.3763898676851394,0.01129815820604563,-0.01822033524513245,0.00802184734493494,0.01279711723327637,0.005764305591583252,0.001035749912261963,1,-0.3032085597515106,-0.6361131072044373,-0.5193459987640381,0.4834298491477966,-0.9299724102020264,-0.3675654530525208,-0.00684936810284853,0,0,0,-1,65530.960688625,2,0,1561243431.082091,1561243107.271691,28,1.054203,0,0,24.53997,0,0,1561243350.380748,65530.290929,0,-3.435059,74.58001,2650634390,177292352,1,1,0.15,-24.49211,-27.32934,5
1561243433.02672,33,0,0,1561243431.989766,4.602332417857463,-74.06497604220553,2652.386,0,225,4,10,-9999,1561243433.025022,-10.2180061340332,-23.25225067138672,23.05804443359375,119.6662139892578,127.2098999023438,20,65532.91421416667,-0.9273529052734375,-0.371246337890625,-0.00140380859375,65532.90914816667,-0.00780918726443935,-0.05025757819532133,0.006997455764183198,65532.90304416667,27.81179809570312,-21.22811889648438,-511.8646240234375,65532.90914816667,-1.268603524102213,-1.564309603755413,0.3762537689737873,-0.008959708735346794,-0.05569367483258247,0.004391159862279892,0.007649421691894531,-0.0006031394004821777,0.004934310913085938,1,-0.3034471571445465,-0.636320173740387,-0.5191551446914673,0.4832124710083008,-0.9300280213356018,-0.3674388825893402,-0.006032918579876423,0,0,0,-1,65530.960688625,2,0,1561243431.082091,1561243107.271691,28,1.054203,0,0,24.53997,0,0,1561243350.380748,65530.290929,0,-3.435059,74.58001,2650634390,177292352,1,1,0.15,-18.68452,-27.31546,5
1561243433.065899,34,0,0,1561243432.989752,4.602332417857463,-74.06497604220553,2652.396,0,225,4,10,-9999,1561243433.025022,-10.2180061340332,-23.25225067138672,23.05804443359375,119.6662139892578,127.2098999023438,20,65532.93449254167,-0.932464599609375,-0.3757781982421875,-0.0145111083984375,65532.92942654167,-0.04608067634164106,-0.02285365057840598,-0.005914081832738964,65532.92316954167,27.69781494140625,-21.23985290527344,-511.9230041503906,65532.92942654167,-1.269288714651773,-1.564934039538545,0.3763003011034474,-0.04723119735717773,-0.02828974649310112,-0.008520377799868584,0.0002660751342773438,-0.005702018737792969,-0.0004531145095825195,1,-0.3038123548030853,-0.6363741159439087,-0.5192369818687439,0.4828239977359772,-0.9300146102905273,-0.3674821555614471,-0.00545207504183054,0,0,0,-1,65530.960688625,2,0,1561243431.082091,1561243107.271691,28,1.054203,0,0,24.53997,0,0,1561243350.380748,65530.290929,0,-3.435059,74.58001,2650634390,177292352,1,1,0.15,-18.68452,-27.30857,5
1561243433.068474,35,0,0,1561243432.989752,4.602332417857463,-74.06497604220553,2652.396,0,225,4,10,-9999,1561243433.06213,-10.3508358001709,-23.32058715820312,23.0794677734375,119.7273254394531,127.2710113525391,20,65532.95475554167,-0.932037353515625,-0.3721771240234375,-0.0274505615234375,65532.94968954167,-0.04270725018883769,0.04180923226926297,-0.01454059323572363,65532.94325054167,27.67034912109375,-21.32099914550781,-512.1251220703125,65532.94968954167,-1.270387549913249,-1.564365102447927,0.3766065621821659,-0.04385777190327644,0.03637313470244408,-0.01714688912034035,-0.004610538482666016,-0.006698936223983765,-0.01498508453369141,1,-0.3039162755012512,-0.6361168622970581,-0.5196619629859924,0.4826403260231018,-0.929898738861084,-0.3677669763565063,-0.00598046975210309,0,0,0,-1,65530.960688625,2,0,1561243431.082091,1561243107.271691,28,1.054203,0,0,24.53997,0,0,1561243350.380748,65530.290929,0,-3.435059,74.58001,2650634390,177292352,1,1,0.15,-18.68452,-27.30857,5
1561243433.087449,36,0,0,1561243432.989752,4.602332417857463,-74.06497604220553,2652.396,0,225,4,10,-9999,1561243433.06213,-10.3508358001709,-23.32058715820312,23.0794677734375,119.7273254394531,127.2710113525391,20,65532.97501954167,-0.9278564453125,-0.3698272705078125,-0.02142333984375,65532.96995354167,0.03347087489622488,0.06083086035515393,-0.002856772901327999,65532.96333154167,27.57864379882812,-21.08378601074219,-512.0532836914062,65532.96995354167,-1.270540598084438,-1.563324121572916,0.3768626296478318,0.03232035040855408,0.05539476498961449,-0.005463068839162588,0.002338290214538574,-0.003653228282928467,-0.01998400688171387,1,-0.3036125004291534,-0.6358817219734192,-0.5199182629585266,0.4828654229640961,-0.9297979474067688,-0.368005096912384,-0.006947770714759827,0,0,0,-1,65530.960688625,2,0,1561243431.082091,1561243107.271691,28,1.054203,0,0,24.53997,0,0,1561243350.380748,65530.290929,0,-3.435059,74.58001,2650634390,177292352,1,1,0.15,-18.68452,-27.83633,5
1561243433.107692,37,0,0,1561243432.989752,4.602332417857463,-74.06497604220553,2652.396,0,225,4,10,-9999,1561243433.099843,-10.43452262878418,-23.20586013793945,23.13839721679688,119.7189025878906,127.2625885009766,20,65532.99528354167,-0.927093505859375,-0.3722686767578125,-0.009368896484375,65532.99018654167,0.05090872108184571,0.05519800833352733,0.003511910529487491,65532.98341154167,27.78871154785156,-21.20533752441406,-512.1387939453125,65532.99018654167,-1.269470966840527,-1.562729447045241,0.3769208193365737,0.04975819960236549,0.04976190999150276,0.0009056145790964365,0.003975749015808105,-0.0019817054271698,-0.009238362312316895,1,-0.3030992448329926,-0.6359092593193054,-0.5197640061378479,0.4833174347877502,-0.9297721982002258,-0.3680591881275177,-0.00750052323564887,0,0,0,-1,65530.960688625,2,0,1561243431.082091,1561243107.271691,28,1.054203,0,0,24.53997,0,0,1561243350.380748,65530.290929,0,-3.435059,74.58001,2650634390,177292352,1,1,0.15,-18.68452,-28.20916,5
1561243433.145267,38,0,0,1561243432.989752,4.602332417857463,-74.06497604220553,2652.396,0,225,4,10,-9999,1561243433.126259,-10.43400955200195,-23.15191650390625,22.97509765625,119.6907577514648,127.2344436645508,20,65533.01551654167,-0.9322509765625,-0.374481201171875,0.0013427734375,65533.01045054167,-0.01352832570538451,0.07961520078791882,-0.005143895645488048,65533.00352254167,27.68093872070312,-21.18603515625,-512.0762939453125,65533.01045054167,-1.269016126459461,-1.561689742917386,0.3769792430543896,-0.01467884704470634,0.07417909801006317,-0.007750191725790501,-0.0002959966659545898,-0.004155158996582031,0.005979835987091064,1,-0.3026657402515411,-0.6357357501983643,-0.5198254585266113,0.4837510585784912,-0.9297423958778381,-0.3681135177612305,-0.008467011153697968,0,0,0,-1,65530.960688625,2,0,1561243431.082091,1561243107.271691,28,1.054203,0,0,24.53997,0,0,1561243350.380748,65530.290929,0,-3.435059,74.58001,2650634390,177292352,1,1,0.15,-18.68452,-29.83595,5
1561243433.148304,39,0,0,1561243432.989752,4.602332417857463,-74.06497604220553,2652.396,0,225,4,10,-9999,1561243433.126259,-10.43400955200195,-23.15191650390625,22.97509765625,119.6907577514648,127.2344436645508,20,65533.03577954167,-0.9319000244140625,-0.3762969970703125,-0.0005645751953125,65533.03071354167,-0.05726914871328195,0.1073765246231228,-0.02631655894383601,65533.02360354167,27.86181640625,-21.18348693847656,-512.2064819335938,65533.03071354167,-1.269932849837165,-1.559567829810876,0.3773639868095342,-0.05841967090964317,0.1019404232501984,-0.02892285585403442,-0.002762079238891602,-0.009733110666275024,0.01202511787414551,1,-0.3022820353507996,-0.6351428627967834,-0.5204600095748901,0.4840871691703796,-0.9295804500579834,-0.3684712052345276,-0.0104382298886776,0,0,0,-1,65530.960688625,2,0,1561243431.082091,1561243107.271691,28,1.054203,0,0,24.53997,0,0,1561243350.380748,65530.290929,0,-3.435059,74.58001,2650634390,177292352,1,1,0.15,-18.68452,-29.83595,5
1561243433.168748,40,0,0,1561243432.989752,4.602332417857463,-74.06497604220553,2652.396,0,225,4,10,-9999,1561243433.150461,-10.38769721984863,-23.2590217590332,22.86566162109375,119.7662582397461,127.309944152832,20,65533.05604354167,-0.9254608154296875,-0.3660125732421875,-0.0029296875,65533.05097754167,-0.01926131258399809,0.09202712936434213,-0.02757064150115432,65533.04368354167,27.68757629394531,-21.23007202148438,-512.0001220703125,65533.05097754167,-1.270920838922167,-1.557171118615895,0.377968381319333,-0.02041183412075043,0.08659103512763977,-0.03017693758010864,0.001458287239074707,-0.002365916967391968,0.009886026382446289,1,-0.3017778098583221,-0.6345065832138062,-0.5212051272392273,0.4844344854354858,-0.929330050945282,-0.369033008813858,-0.01266309898346663,0,0,0,-1,65530.960688625,2,0,1561243431.082091,1561243107.271691,28,1.054203,0,0,24.53997,0,0,1561243350.380748,65530.290929,0,-3.435059,74.58001,2650634390,177292352,1,1,0.15,-18.68452,-30.57401,5
1561243433.188957,41,0,0,1561243432.989752,4.602332417857463,-74.06497604220553,2652.396,0,225,4,10,-9999,1561243433.176921,-10.5794734954834,-23.22885513305664,22.7738037109375,119.8065719604492,127.3502578735352,20,65533.07630754167,-0.9287261962890625,-0.366912841796875,-0.00579833984375,65533.07124154167,-0.01719203641700652,0.1418862986605876,-0.02546274949835661,65533.06376454167,27.58355712890625,-21.40866088867188,-512.3368530273438,65533.07124154167,-1.271201431611726,-1.554982662199965,0.3785624028394601,-0.01834255829453468,0.1364502012729645,-0.02806904539465904,0.006046056747436523,0.0028095543384552,0.01251137256622314,1,-0.3011057078838348,-0.6340257525444031,-0.5217441320419312,0.4849017858505249,-0.9290807247161865,-0.3695850372314453,-0.01469339523464441,0,0,0,-1,65530.960688625,2,0,1561243431.082091,1561243107.271691,28,1.054203,0,0,24.53997,0,0,1561243350.380748,65530.290929,0,-3.435059,74.58001,2650634390,177292352,1,1,0.15,-18.68452,-31.42259,5
1561243433.2305,42,0,0,1561243432.989752,4.602332417857463,-74.06497604220553,2652.396,0,225,4,10,-9999,1561243433.227585,-10.89415740966797,-23.40167999267578,22.563232421875,120.0018615722656,127.5455474853516,20,65533.09657054167,-0.9460296630859375,-0.374725341796875,-0.0080413818359375,65533.09150454167,-0.07717361470053417,0.3279424555806844,-0.05912057830310504,65533.08387554167,27.41212463378906,-21.41627502441406,-512.3474731445312,65533.09150454167,-1.272239965556943,-1.550007112252885,0.3793692828163429,-0.07832413166761398,0.3225063681602478,-0.06172687187790871,-0.009824573993682861,-0.0005607008934020996,0.0138012170791626,1,-0.2998760342597961,-0.6327871084213257,-0.5229349136352539,0.4859979450702667,-0.9286977648735046,-0.3703346848487854,-0.01930967904627323,0,0,0,-1,65530.960688625,2,0,1561243431.082091,1561243107.271691,28,1.054203,0,0,24.53997,0,0,1561243350.380748,65530.290929,0,-3.435059,74.58001,2650634390,177292352,1,1,0.15,-18.68452,-30.41915,5
1561243433.23307,43,0,0,1561243432.989752,4.602332417857463,-74.06497604220553,2652.396,0,225,4,10,-9999,1561243433.227585,-10.89415740966797,-23.40167999267578,22.563232421875,120.0018615722656,127.5455474853516,20,65533.11683454167,-0.95159912109375,-0.373321533203125,-0.0102996826171875,65533.11173854167,-0.08877194756393827,0.4578618398830009,-0.1507500977166983,65533.10395654167,27.27706909179688,-21.43873596191406,-512.4974975585938,65533.11173854167,-1.27417040072176,-1.541267504468517,0.3814456178169977,-0.0899224653840065,0.4524257481098175,-0.1533564031124115,-0.02361702919006348,-0.002661138772964478,0.01945269107818604,1,-0.2975274324417114,-0.6306949853897095,-0.5251988768577576,0.487716406583786,-0.9277227520942688,-0.372262567281723,-0.02740252390503883,0,0,0,-1,65530.960688625,2,0,1561243431.082091,1561243107.271691,28,1.054203,0,0,24.53997,0,0,1561243350.380748,65530.290929,0,-3.435059,74.58001,2650634390,177292352,1,1,0.15,-18.68452,-30.41915,5
1561243433.249583,44,0,0,1561243432.989752,4.602332417857463,-74.06497604220553,2652.396,0,225,4,10,-9999,1561243433.227585,-10.89415740966797,-23.40167999267578,22.563232421875,120.0018615722656,127.5455474853516,20,65533.13706754167,-0.973419189453125,-0.372528076171875,-0.0229644775390625,65533.13200154167,-0.04876514272044093,0.4403294514786823,-0.2767716794475749,65533.12403654167,27.22811889648438,-21.45919799804688,-512.880615234375,65533.13200154167,-1.27581974247803,-1.531999061771709,0.3857249248597089,-0.04991566389799118,0.4348933696746826,-0.2793779671192169,-0.03187394142150879,0.005701690912246704,0.01723039150238037,1,-0.2942240238189697,-0.6288588047027588,-0.5279712080955505,0.4890963435173035,-0.9258286952972412,-0.3762308955192566,-0.03593765571713448,0,0,0,-1,65530.960688625,2,0,1561243431.082091,1561243107.271691,28,1.054203,0,0,24.53997,0,0,1561243350.380748,65530.290929,0,-3.435059,74.58001,2650634390,177292352,1,1,0.15,-18.68452,-31.17871,5
1561243433.269908,45,0,0,1561243432.989752,4.602332417857463,-74.06497604220553,2652.396,0,225,4,10,-9999,1561243433.251788,-10.88483810424805,-23.39816665649414,22.49139404296875,120.111213684082,127.654899597168,20,65533.15733154167,-1.031417846679688,-0.3665771484375,-0.0595855712890625,65533.15226554167,-0.05598630401619079,0.7420285850455079,-0.4621844166483086,65533.14411754167,27.42210388183594,-21.48272705078125,-512.5933837890625,65533.15226554167,-1.277277423980328,-1.520203038826687,0.3930917097048425,-0.05713837966322899,0.7365900874137878,-0.4647903740406036,-0.07330238819122314,0.006733864545822144,0.01041388511657715,1,-0.2891654670238495,-0.6269178986549377,-0.5317476391792297,0.4905116856098175,-0.9225472211837769,-0.3830461502075195,-0.04671456292271614,0,0,0,-1,65530.960688625,2,0,1561243431.082091,1561243107.271691,28,1.054203,0,0,24.53997,0,0,1561243350.380748,65530.290929,0,-3.435059,74.58001,2650634390,177292352,1,1,0.15,-18.68452,-31.68688,5
1561243433.311707,46,0,0,1561243432.989752,4.602332417857463,-74.06497604220553,2652.396,0,225,4,10,-9999,1561243433.304173,-11.14044570922852,-23.68532943725586,21.9373779296875,120.2353439331055,127.7790298461914,20,65533.17759554167,-1.06524658203125,-0.330474853515625,-0.1073150634765625,65533.17252954167,0.02667901516819579,1.364173109408336,-0.7910043838081741,65533.16422854167,27.30509948730469,-21.68519592285156,-512.9655151367188,65533.17252954167,-1.278708718320136,-1.498835169111543,0.4054560083095936,0.02552693895995617,1.358734607696533,-0.7936103343963623,-0.1403099298477173,0.03535276651382446,-0.01907432079315186,1,-0.2798546254634857,-0.6234152317047119,-0.537939190864563,0.493615448474884,-0.9165443181991577,-0.394437849521637,-0.06606967747211456,0,0,0,-1,65530.960688625,2,0,1561243431.082091,1561243107.271691,28,1.054203,0,0,24.53997,0,0,1561243350.380748,65530.290929,0,-3.435059,74.58001,2650634390,177292352,1,1,0.15,-18.68452,-30.68882,5
1561243433.314107,47,0,0,1561243432.989752,4.602332417857463,-74.06497604220553,2652.396,0,225,4,10,-9999,1561243433.304173,-11.14044570922852,-23.68532943725586,21.9373779296875,120.2353439331055,127.7790298461914,20,65533.19785854167,-1.053756713867188,-0.2010345458984375,-0.1591796875,65533.19279254167,0.2175115515033497,2.008281788545483,-1.251935516847491,65533.18430854167,26.88511657714844,-21.73829650878906,-513.4401245117188,65533.19279254167,-1.278325098184466,-1.464649727862713,0.4260849040792859,0.2163594663143158,2.002843141555786,-1.254541516304016,-0.165029764175415,0.1419771313667297,-0.03282827138900757,1,-0.2636289596557617,-0.6182737350463867,-0.5470185279846191,0.4990071058273315,-0.905465841293335,-0.4133089184761047,-0.09647472202777863,0,0,0,-1,65530.960688625,2,0,1561243431.082091,1561243107.271691,28,1.054203,0,0,24.53997,0,0,1561243350.380748,65530.290929,0,-3.435059,74.58001,2650634390,177292352,1,1,0.15,-18.68452,-30.68882,5
1561243433.33064,48,0,0,1561243432.989752,4.602332417857463,-74.06497604220553,2652.396,0,225,4,10,-9999,1561243433.328782,-11.77711486816406,-24.17428588867188,21.31512451171875,119.8507919311523,127.3944778442383,20,65533.21812254167,-1.052627563476562,-0.0736236572265625,-0.1572265625,65533.21305654167,0.6479505553256958,2.484774038150243,-1.636993190430451,65533.20438954167,26.25506591796875,-22.00727844238281,-513.6924438476562,65533.21305654167,-1.273139617967691,-1.421056579361593,0.4566208196202686,0.6467984318733215,2.47933554649353,-1.639599204063416,-0.1583945751190186,0.3004910349845886,-0.02569484710693359,1,-0.2396923303604126,-0.6128614544868469,-0.5576117634773254,0.5059816837310791,-0.8875038623809814,-0.4409176409244537,-0.1338968425989151,0,0,0,-1,65530.960688625,2,0,1561243431.082091,1561243107.271691,28,1.054203,0,0,24.53997,0,0,1561243350.380748,65530.290929,0,-3.435059,74.58001,2650634390,177292352,1,1,0.15,-18.68452,-31.08352,5
1561243433.350855,49,0,0,1561243432.989752,4.602332417857463,-74.06497604220553,2652.396,0,225,4,10,-9999,1561243433.328782,-11.77711486816406,-24.17428588867188,21.31512451171875,119.8507919311523,127.3944778442383,20,65533.23835554167,-1.067092895507812,0.04241943359375,-0.1788330078125,65533.23328954167,1.027163389264259,2.566658252186909,-1.859749837700712,65533.22447054167,26.00019836425781,-21.98336791992188,-513.7864990234375,65533.23328954167,-1.261158757363918,-1.3752774989744,0.4945586256771803,1.026011347770691,2.561219692230225,-1.862355828285217,-0.1906232833862305,0.4603456854820251,-0.001137375831604004,1,-0.2100841403007507,-0.6085771322250366,-0.5672420859336853,0.5135511755943298,-0.8634081482887268,-0.47464320063591,-0.1709970533847809,0,0,0,-1,65530.960688625,2,0,1561243431.082091,1561243107.271691,28,1.054203,0,0,24.53997,0,0,1561243350.380748,65530.290929,0,-3.435059,74.58001,2650634390,177292352,1,1,0.15,-18.68452,-31.64068,5
1561243433.393148,50,0,0,1561243432.989752,4.602332417857463,-74.06497604220553,2652.396,0,225,4,10,-9999,1561243433.379586,-12.50569725036621,-24.18043899536133,20.90087890625,117.5222549438477,125.0659408569336,20,65533.25861954167,-1.0875244140625,0.1553192138671875,-0.1974029541015625,65533.25355354167,1.340565251609219,2.584884660371302,-2.07464456711695,65533.24458154167,25.60311889648438,-22.15159606933594,-513.9969482421875,65533.25355354167,-1.244020002749607,-1.331350324670885,0.5383368640986453,1.339413166046143,2.579446077346802,-2.077250480651855,-0.2551965713500977,0.6061383485794067,0.0197979211807251,1,-0.1769126504659653,-0.605715811252594,-0.5752444863319397,0.520484447479248,-0.8340673446655273,-0.5127087831497192,-0.2036205381155014,0,0,0,-1,65530.960688625,2,0,1561243431.082091,1561243107.271691,28,1.054203,0,0,24.53997,0,0,1561243350.380748,65530.290929,0,-3.435059,74.58001,2650634390,177292352,1,1,0.15,-18.68452,-29.87204,5
1561243433.396257,51,0,0,1561243432.989752,4.602332417857463,-74.06497604220553,2652.396,0,225,4,10,-9999,1561243433.379586,-12.50569725036621,-24.18043899536133,20.90087890625,117.5222549438477,125.0659408569336,20,65533.27888254167,-1.005508422851562,0.2541046142578125,-0.1999053955078125,65533.27381654167,1.623043552640616,2.699591535894868,-2.51667391431943,65533.26466154167,25.51518249511719,-22.07008361816406,-514.136474609375,65533.27381654167,-1.223758246940111,-1.289499487072302,0.5911866828435793,1.621891498565674,2.69415283203125,-2.519279718399048,-0.2461307644844055,0.7617839574813843,0.0257294774055481,1,-0.1396595686674118,-0.6043605208396912,-0.5824949145317078,0.5253029465675354,-0.797646701335907,-0.5573467016220093,-0.2304871380329132,0,0,0,-1,65530.960688625,2,0,1561243431.082091,1561243107.271691,28,1.054203,0,0,24.53997,0,0,1561243350.380748,65530.290929,0,-3.435059,74.58001,2650634390,177292352,1,1,0.15,-18.68452,-29.87204,5
1561243433.412097,52,0,0,1561243432.989752,4.602332417857463,-74.06497604220553,2652.396,0,225,4,10,-9999,1561243433.404046,-12.65620422363281,-23.9553108215332,21.0526123046875,115.9948501586914,123.5385360717773,20,65533.29914654167,-0.8578338623046875,0.2090911865234375,-0.1546630859375,65533.29408054167,1.871226996734517,3.332614806994561,-2.613578623220252,65533.28474254167,25.55538940429688,-21.68038940429688,-514.1023559570312,65533.29408054167,-1.201986307210907,-1.241810323311944,0.6522208688504603,1.870074987411499,3.327176332473755,-2.61618447303772,-0.1864823698997498,0.8736612796783447,0.07721656560897827,1,-0.09672316908836365,-0.6018814444541931,-0.5893987417221069,0.5300871729850769,-0.752116322517395,-0.6069529056549072,-0.2567667067050934,0,0,0,-1,65530.960688625,2,0,1561243431.082091,1561243107.271691,28,1.054203,0,0,24.53997,0,0,1561243350.380748,65530.290929,0,-3.435059,74.58001,2650634390,177292352,1,1,0.15,-18.68452,-30.61235,5
1561243433.43187,53,0,0,1561243432.989752,4.602332417857463,-74.06497604220553,2652.396,0,225,4,10,-9999,1561243433.430063,-13.12887001037598,-23.5879020690918,20.80950927734375,113.9127502441406,121.4564361572266,20,65533.31941054167,-0.67095947265625,-0.065826416015625,-0.19805908203125,65533.31434454167,2.24439472131471,3.402631442581616,-2.018714189483651,65533.30482254167,25.189697265625,-21.83018493652344,-514.4263916015625,65533.31434454167,-1.173457035190944,-1.189527122301175,0.7119509718087553,2.243242740631104,3.39719295501709,-2.021320104598999,-0.05293655395507812,0.758384108543396,0.1193735599517822,1,-0.05037996545433998,-0.5971649289131165,-0.5924339294433594,0.5384030938148499,-0.7027245163917542,-0.653312087059021,-0.2817118167877197,0,0,0,-1,65530.960688625,2,0,1561243431.082091,1561243107.271691,28,1.054203,0,0,24.53997,0,0,1561243350.380748,65530.290929,0,-3.435059,74.58001,2650634390,177292352,1,1,0.15,-18.68452,-31.53573,5
1561243433.473441,54,0,0,1561243432.989752,4.602332417857463,-74.06497604220553,2652.396,0,225,4,10,-9999,1561243433.454468,-14.02297592163086,-22.66567230224609,20.804931640625,110.609733581543,118.1534194946289,20,65533.33967354167,-0.6501007080078125,-0.0524139404296875,-0.1409759521484375,65533.33457754167,2.433462380795468,2.794414185455466,-1.178066618743637,65533.32490354167,24.48098754882812,-21.19999694824219,-514.15576171875,65533.33457754167,-1.130478189623093,-1.155505937650209,0.7598036561237927,2.432310342788696,2.788975715637207,-1.180672645568848,0.002047598361968994,0.5743992328643799,0.1203136444091797,1,-0.009343335404992104,-0.5946980714797974,-0.5877171158790588,0.5484848618507385,-0.6633482575416565,-0.6887791156768799,-0.2924938201904297,0,0,0,-1,65530.960688625,2,0,1561243431.082091,1561243107.271691,28,1.054203,0,0,24.53997,0,0,1561243350.380748,65530.290929,0,-3.435059,74.58001,2650634390,177292352,1,1,0.15,-18.68452,-32.8819,5
1561243433.476668,55,0,0,1561243432.989752,4.602332417857463,-74.06497604220553,2652.396,0,225,4,10,-9999,1561243433.454468,-14.02297592163086,-22.66567230224609,20.804931640625,110.609733581543,118.1534194946289,20,65533.35990754167,-0.6883697509765625,-0.1057586669921875,-0.116241455078125,65533.35484154167,2.473280900149897,2.194423432936571,-0.8349438786333915,65533.34501454167,23.61668395996094,-20.19955444335938,-513.8856811523438,65533.35484154167,-1.078167288403345,-1.142240563953806,0.7980184694925987,2.472128868103027,2.188984870910645,-0.8375498652458191,-0.03051906824111938,0.6657879948616028,0.163357138633728,1,0.02478933520615101,-0.5952558517456055,-0.5781851410865784,0.5574566721916199,-0.6349930167198181,-0.7159741520881653,-0.2901119291782379,0,0,0,-1,65530.960688625,2,0,1561243431.082091,1561243107.271691,28,1.054203,0,0,24.53997,0,0,1561243350.380748,65530.290929,0,-3.435059,74.58001,2650634390,177292352,1,1,0.15,-18.68452,-32.8819,5
1561243433.492727,56,0,0,1561243432.989752,4.602332417857463,-74.06497604220553,2652.396,0,225,4,10,-9999,1561243433.480763,-14.63118171691895,-21.85271835327148,21.1661376953125,106.6220550537109,114.1657409667969,20,65533.38017054167,-0.62744140625,-0.2713470458984375,-0.084716796875,65533.37510454167,2.754338404739736,2.301860677632548,-0.8232344919525311,65533.36509554167,23.14533996582031,-19.07427978515625,-513.66845703125,65533.37510454167,-1.018760228279432,-1.14092001344953,0.8352320002158943,2.753186225891113,2.296422004699707,-0.8258404731750488,-0.08749306201934814,0.5817384719848633,0.174422562122345,1,0.0573212169110775,-0.5974032878875732,-0.5663649439811707,0.5648488402366638,-0.6099556684494019,-0.7414522171020508,-0.279647171497345,0,0,0,-1,65530.960688625,2,0,1561243431.082091,1561243107.271691,28,1.054203,0,0,24.53997,0,0,1561243350.380748,65530.290929,0,-3.435059,74.58001,2650634390,177292352,1,1,0.15,-18.68452,-33.07828,5
1561243433.512901,57,0,0,1561243432.989752,4.602332417857463,-74.06497604220553,2652.396,0,225,4,10,-9999,1561243433.505519,-15.41051483154297,-20.93918609619141,21.495361328125,101.6650238037109,109.2087097167969,20,65533.40043454167,-0.5167388916015625,-0.43878173828125,-0.093048095703125,65533.39536854167,2.98346719755023,2.250725854174155,-0.527400171738278,65533.38517554167,22.34780883789062,-17.97557067871094,-513.2528686523438,65533.39536854167,-0.9463781810411206,-1.149362530172325,0.8723237282833582,2.982315063476562,2.245287179946899,-0.5300061702728271,0.0228954553604126,0.3627948760986328,0.1570333242416382,1,0.09111072868108749,-0.6001442670822144,-0.5511148571968079,0.5725364685058594,-0.5867840051651001,-0.7658252716064453,-0.2630513906478882,0,0,0,-1,65530.960688625,2,0,1561243431.082091,1561243107.271691,28,1.054203,0,0,24.53997,0,0,1561243350.380748,65530.290929,0,-3.435059,74.58001,2650634390,177292352,1,1,0.15,-18.68452,-31.82013,5
1561243433.553703,58,0,0,1561243432.989752,4.602332417857463,-74.06497604220553,2652.396,0,225,4,10,-9999,1561243433.53157,-17.15892791748047,-18.47014617919922,21.87567138671875,95.61651611328125,103.1602020263672,20,65533.42069854167,-0.4882659912109375,-0.47900390625,-0.0308074951171875,65533.41563254167,2.907893876348724,2.16973246752212,0.07750411299181302,65533.40525654167,21.24368286132812,-16.8126220703125,-513.216064453125,65533.41563254167,-0.8619453357560143,-1.169878659687084,0.9009926851533433,2.906741857528687,2.164293766021729,0.0748981237411499,0.08542674779891968,0.3248981237411499,0.1894621849060059,1,0.1221785247325897,-0.6032647490501404,-0.531980574131012,0.5814988017082214,-0.5716022253036499,-0.7839435935020447,-0.2422880977392197,0,0,0,-1,65530.960688625,2,0,1561243431.082091,1561243107.271691,28,1.054203,0,0,24.53997,0,0,1561243350.380748,65530.290929,0,-3.435059,74.58001,2650634390,177292352,1,1,0.15,-18.68452,-31.93656,5
1561243433.55695,59,0,0,1561243432.989752,4.602332417857463,-74.06497604220553,2652.396,0,225,4,10,-9999,1561243433.555774,-18.12752342224121,-16.95133590698242,22.12481689453125,89.23566436767578,96.77935028076172,20,65533.44096154167,-0.5306396484375,-0.498046875,0.0546112060546875,65533.43589554167,2.707027081658369,1.768257737399367,0.4835935686514556,65533.42536754167,20.46139526367188,-15.45864868164062,-512.9156494140625,65533.43589554167,-0.7728600900132494,-1.200500624873338,0.9165952603659319,2.705874919891357,1.762819290161133,0.4809875786304474,0.0650978684425354,0.3246012330055237,0.2236531972885132,1,0.1472483724355698,-0.6068013906478882,-0.5103833079338074,0.5912858247756958,-0.5672798752784729,-0.7935343384742737,-0.2202199846506119,0,0,0,-1,65530.960688625,2,0,1561243431.082091,1561243107.271691,28,1.054203,0,0,24.53997,0,0,1561243350.380748,65530.290929,0,-3.435059,74.58001,2650634390,177292352,1,1,0.15,-18.68452,-31.93656,5
1561243433.573753,60,0,0,1561243432.989752,4.602332417857463,-74.06497604220553,2652.396,0,225,4,10,-9999,1561243433.555774,-18.12752342224121,-16.95133590698242,22.12481689453125,89.23566436767578,96.77935028076172,20,65533.46122554167,-0.5452117919921875,-0.6356964111328125,0.05853271484375,65533.45612854167,2.397699056832903,1.510986522401679,0.4452083625957075,65533.44544754167,19.2808837890625,-13.94636535644531,-512.9937744140625,65533.45612854167,-0.686501315339461,-1.236657232452367,0.9254681012538771,2.396547079086304,1.505548119544983,0.4426023960113525,0.03032338619232178,0.2385996580123901,0.2847312688827515,1,0.1679537296295166,-0.6108725070953369,-0.4890666007995605,0.5995333194732666,-0.5681957006454468,-0.7989023923873901,-0.1972526460886002,0,0,0,-1,65530.960688625,2,0,1561243431.082091,1561243107.271691,28,1.054203,0,0,24.53997,0,0,1561243350.380748,65530.290929,0,-3.435059,74.58001,2650634390,177292352,1,1,0.15,-18.68452,-27.82449,5
1561243433.59394,61,0,0,1561243432.989752,4.602332417857463,-74.06497604220553,2652.396,0,225,4,10,-9999,1561243433.582016,-19.15408134460449,-15.57110977172852,21.9989013671875,83.38058471679688,90.92427062988281,20,65533.48145854167,-0.596588134765625,-0.7125244140625,-0.051300048828125,65533.47639254167,2.148711604405907,1.891216683876652,0.6059165522604301,65533.46552854167,18.57179260253906,-12.60702514648438,-512.776123046875,65533.47639254167,-0.608451506988019,-1.266723899215956,0.9297748389743977,2.147559642791748,1.885778188705444,0.6033105850219727,0.007638216018676758,0.1224997639656067,0.1654855012893677,1,0.1862944513559341,-0.6130000948905945,-0.4689868986606598,0.6079281568527222,-0.5705807209014893,-0.8014853000640869,-0.1790505200624466,0,0,0,-1,65530.960688625,2,0,1561243431.082091,1561243107.271691,28,1.054203,0,0,24.53997,0,0,1561243350.380748,65530.290929,0,-3.435059,74.58001,2650634390,177292352,1,1,0.15,-18.68452,-28.21183,5
1561243433.637148,62,0,0,1561243432.989752,4.602332417857463,-74.06497604220553,2652.396,0,225,4,10,-9999,1561243433.607197,-20.1373462677002,-14.21298980712891,22.0828857421875,78.22597503662109,85.76966094970703,20,65533.50172254167,-0.6215667724609375,-0.7426300048828125,-0.0574798583984375,65533.49665654167,1.747596401030314,3.056576562111194,0.4254591589000069,65533.48560854167,17.31259155273438,-11.23672485351562,-513.2476196289062,65533.49665654167,-0.539110056526693,-1.272190615320474,0.9311781597993132,1.746444344520569,3.051137924194336,0.4228531718254089,-0.04236346483230591,0.08070504665374756,0.1157525777816772,1,0.2067430764436722,-0.6078310012817383,-0.4484889805316925,0.6218169927597046,-0.5704752802848816,-0.8023236989974976,-0.1755975484848022,0,0,0,-1,65530.960688625,2,0,1561243431.082091,1561243107.271691,28,1.054203,0,0,24.53997,0,0,1561243350.380748,65530.290929,0,-3.435059,74.58001,2650634390,177292352,1,1,0.15,-18.68452,-28.51009,5
1561243433.639945,63,0,0,1561243432.989752,4.602332417857463,-74.06497604220553,2652.396,0,225,4,10,-9999,1561243433.632868,-22.83633422851562,-12.27907085418701,20.22625732421875,74.79623413085938,82.33992004394531,20,65533.52198554167,-0.535369873046875,-0.8040008544921875,0.0368804931640625,65533.51691954167,1.036112675791361,3.537554107623865,0.1851980864168733,65533.50572054167,15.90072631835938,-10.46710205078125,-514.5152587890625,65533.51691954167,-0.4905623052645769,-1.242939400920579,0.9343692969303461,1.034960627555847,3.532115459442139,0.1825920939445496,-0.03607094287872314,0.02749097347259521,0.18153977394104,1,0.2289734184741974,-0.5931950211524963,-0.4306429028511047,0.6404978036880493,-0.5626686811447144,-0.8042243719100952,-0.1913816779851913,0,0,0,-1,65530.960688625,2,0,1561243431.082091,1561243107.271691,28,1.054203,0,0,24.53997,0,0,1561243350.380748,65530.290929,0,-3.435059,74.58001,2650634390,177292352,1,1,0.15,-18.68452,-28.51009,5
1561243433.654817,64,0,0,1561243432.989752,4.602332417857463,-74.06497604220553,2652.396,0,225,4,10,-9999,1561243433.632868,-22.83633422851562,-12.27907085418701,20.22625732421875,74.79623413085938,82.33992004394531,20,65533.54224954167,-0.4333648681640625,-0.80108642578125,0.1311492919921875,65533.53718354167,0.2310827541022845,3.446441774093965,0.2765282665239417,65533.52580054167,14.01054382324219,-9.77679443359375,-516.077880859375,65533.53718354167,-0.4676160720227731,-1.19042425490871,0.9348938351019547,0.2299306690692902,3.441003084182739,0.2739222943782806,0.07293999195098877,-0.007979273796081543,0.3173590898513794,1,0.2469993680715561,-0.5733612775802612,-0.4170354008674622,0.6605525612831116,-0.551455557346344,-0.8045360445976257,-0.2204963117837906,0,0,0,-1,65530.960688625,2,0,1561243431.082091,1561243107.271691,28,1.054203,0,0,24.53997,0,0,1561243350.380748,65530.290929,0,-3.435059,74.58001,2650634390,177292352,1,1,0.15,-18.68452,-29.07609,5
1561243433.674974,65,0,0,1561243432.989752,4.602332417857463,-74.06497604220553,2652.396,0,225,4,10,-9999,1561243433.670385,-24.4611873626709,-11.96006298065186,18.6307373046875,73.62534332275391,81.16902923583984,20,65533.56251354167,-0.4017181396484375,-0.5787200927734375,0.1160736083984375,65533.55744754167,-0.5646918838504396,4.092369125939527,0.6454242807156466,65533.54591154167,12.6390380859375,-9.5758056640625,-517.7019653320312,65533.55744754167,-0.4671156371736347,-1.116695322688477,0.9256281619258302,-0.5658439993858337,4.086930751800537,0.6428182721138,0.132035493850708,0.07738000154495239,0.4215227365493774,1,0.2586678564548492,-0.5488189458847046,-0.4057519733905792,0.6835598349571228,-0.540391206741333,-0.7989986538887024,-0.2637774050235748,0,0,0,-1,65533.55384654167,3,2,1561243433.675249,1561243107.271691,28,1.054203,0,0,24.53997,0,0,1561243350.380748,65530.290929,0,-3.435059,74.58001,2650634390,177292352,1,1,0.15,-18.68452,-29.07609,5
1561243433.701514,66,0,0,1561243432.989752,4.602332417857463,-74.06497604220553,2652.396,0,225,4,10,-9999,1561243433.670385,-24.4611873626709,-11.96006298065186,18.6307373046875,73.62534332275391,81.16902923583984,20,65533.58274654167,-0.229400634765625,-0.5446319580078125,0.066192626953125,65533.57768054167,-1.382835210747066,4.742346346854773,0.6742649837406597,65533.56599254167,10.92520141601562,-9.27166748046875,-520.1259155273438,65533.57768054167,-0.4832310138797913,-1.012976492053802,0.902288098757644,-1.383987188339233,4.736907958984375,0.671658992767334,0.173182487487793,0.2647733688354492,0.3670172691345215,1,0.2657235562801361,-0.5151164531707764,-0.3936597108840942,0.7134971022605896,-0.5258588790893555,-0.7847471833229065,-0.3280920684337616,0,0,0,-1,65533.55384654167,3,2,1561243433.675249,1561243107.271691,28,1.054203,0,0,24.53997,0,0,1561243350.380748,65530.290929,0,-3.435059,74.58001,2650634390,177292352,1,1,0.15,-18.68452,-30.00342,5
1561243433.715388,67,0,0,1561243432.989752,4.602332417857463,-74.06497604220553,2652.396,0,225,4,10,-9999,1561243433.708128,-27.56753349304199,-11.42218685150146,14.04400634765625,76.75820159912109,84.30188751220703,20,65533.60301054167,-0.001739501953125,-0.7162628173828125,0.2631683349609375,65533.59794454167,-2.311760712668809,4.282093787261208,-0.2912219915223448,65533.58607254167,9.593551635742188,-9.58331298828125,-523.2021484375,65533.59794454167,-0.5259447499227605,-0.8875144186399014,0.8771374727911514,-2.312912702560425,4.276655197143555,-0.2938279509544373,0.3819922208786011,0.1435456275939941,0.5544233322143555,1,0.2692862749099731,-0.475036084651947,-0.3886024951934814,0.7421682476997375,-0.4958227574825287,-0.7689118385314941,-0.403651237487793,0,0,0,-1,65533.55384654167,3,2,1561243433.675249,1561243107.271691,28,1.054203,0,0,24.53997,0,0,1561243350.380748,65530.290929,0,-3.435059,74.58001,2650634390,177292352,1,1,0.15,-18.68452,-30.00342,5
1561243433.735914,68,0,0,1561243432.989752,4.602332417857463,-74.06497604220553,2652.396,0,225,4,10,-9999,1561243433.733898,-29.89921188354492,-12.82032012939453,8.03973388671875,83.48013305664062,91.02381896972656,20,65533.62327354167,0.1458282470703125,-0.8327178955078125,0.5705718994140625,65533.61820754167,-4.415215889090454,3.212320086871791,-1.468026271909284,65533.60618354167,8.40087890625,-10.34886169433594,-526.3079833984375,65533.61820754167,-0.6180053475147519,-0.7404017456264992,0.8452556919738284,-4.416368007659912,3.206881523132324,-1.470632314682007,0.5376406908035278,-0.04321050643920898,0.9253857731819153,1,0.2639155089855194,-0.4306237101554871,-0.3999302089214325,0.7648317813873291,-0.4476138353347778,-0.748140811920166,-0.4898236393928528,0,0,0,-1,65533.55384654167,3,2,1561243433.675249,1561243107.271691,28,1.054203,0,0,24.53997,0,0,1561243350.380748,65530.290929,0,-3.435059,74.58001,2650634390,177292352,1,1,0.15,-18.68452,-30.38296,5
1561243433.756098,69,0,0,1561243432.989752,4.602332417857463,-74.06497604220553,2652.396,0,225,4,10,-9999,1561243433.733898,-29.89921188354492,-12.82032012939453,8.03973388671875,83.48013305664062,91.02381896972656,20,65533.64353754167,0.1719207763671875,-0.5611572265625,0.632720947265625,65533.63847154167,-7.783186290084688,1.407903279771873,-1.453018027586142,65533.62626454167,8.259796142578125,-12.15522766113281,-529.1666870117188,65533.63847154167,-0.7646651220056343,-0.5857336999875937,0.7674513284411584,-7.784338474273682,1.402464866638184,-1.455624103546143,0.5749876499176025,-0.05710053443908691,1.238800168037415,1,0.2326804548501968,-0.3821016252040863,-0.4315011203289032,0.7833676934242249,-0.3978483974933624,-0.6943032741546631,-0.5997163057327271,0,0,0,-1,65533.55384654167,3,2,1561243433.675249,1561243107.271691,28,1.054203,0,0,24.53997,0,0,1561243350.380748,65530.290929,0,-3.435059,74.58001,2650634390,177292352,1,1,0.15,-18.68452,-31.17845,5
1561243433.791499,70,0,0,1561243432.989752,4.602332417857463,-74.06497604220553,2652.396,0,225,4,10,-9999,1561243433.78472,-29.89276313781738,-16.0597038269043,2.28076171875,100.8209381103516,108.3646240234375,20,65533.66380154167,0.2356414794921875,0.120147705078125,0.335418701171875,65533.65873554167,-9.82572751552517,-1.855992383718719,0.959185403491659,65533.64634554167,8.182632446289062,-13.95211791992188,-532.0615234375,65533.65873554167,-0.8960067600964885,-0.5035852406890272,0.6156048286116382,-9.826879501342773,-1.861430764198303,0.9565794467926025,0.5323171615600586,0.317122220993042,1.258254289627075,1,0.1616087406873703,-0.3410962820053101,-0.4678236544132233,0.7991727590560913,-0.3939809203147888,-0.5774524211883545,-0.7150718569755554,0,0,0,-1,65533.55384654167,3,2,1561243433.675249,1561243107.271691,28,1.054203,0,0,24.53997,0,0,1561243350.380748,65531.231434,0,-3.435059,74.58001,2650634390,177292352,1,1,0.15,-18.68452,-29.70068,5
1561243433.796563,71,0,0,1561243432.989752,4.602332417857463,-74.06497604220553,2652.396,0,225,4,10,-9999,1561243433.78472,-29.89276313781738,-16.0597038269043,2.28076171875,100.8209381103516,108.3646240234375,20,65533.68406454167,0.5233154296875,0.755828857421875,0.0042572021484375,65533.67896854167,-9.008050774451524,-6.135585462716342,4.889622350929463,65533.66645654167,7.95111083984375,-14.07740783691406,-533.8411254882812,65533.67896854167,-0.9497750916431784,-0.5548674603089585,0.4173501095174402,-9.00920295715332,-6.141023635864258,4.887016296386719,0.8915839791297913,0.8754321932792664,0.9067291021347046,1,0.05467935651540756,-0.3293980956077576,-0.480675607919693,0.8108378052711487,-0.4816108047962189,-0.4053394496440887,-0.7770141363143921,0,0,0,-1,65533.55384654167,3,2,1561243433.675249,1561243107.271691,28,1.054203,0,0,24.53997,0,0,1561243350.380748,65531.231434,0,-3.435059,74.58001,2650634390,177292352,1,1,0.15,-18.68452,-29.70068,5
1561243433.816791,72,0,0,1561243432.989752,4.602332417857463,-74.06497604220553,2652.396,0,225,4,10,-9999,1561243433.808877,-31.33291625976562,-12.20884418487549,3.91082763671875,100.5486526489258,108.0923385620117,20,65533.70429754167,0.263458251953125,1.053131103515625,-0.1987457275390625,65533.69923254167,-7.21047030186984,-10.85419026108528,9.15752654958662,65533.68653654167,6.967300415039062,-11.3968505859375,-532.49072265625,65533.69923254167,-0.931837494192949,-0.7336918083488219,0.1997494607792233,-7.21162223815918,-10.85962867736816,9.154919624328613,1.157354593276978,1.124525427818298,0.6403999328613281,1,-0.07717506587505341,-0.3606580197811127,-0.4492136836051941,0.813742458820343,-0.6563016772270203,-0.1984237730503082,-0.7279396057128906,0,0,0,-1,65533.55384654167,3,2,1561243433.675249,1561243107.271691,28,1.054203,0,0,24.53997,0,0,1561243350.380748,65531.231434,0,-3.435059,74.58001,2650634390,177292352,1,1,0.15,-18.68452,-24.03033,5
1561243433.837078,73,0,0,1561243432.989752,4.602332417857463,-74.06497604220553,2652.396,0,225,4,10,-9999,1561243433.835435,-31.36568069458008,-6.894476890563965,9.39031982421875,97.00405120849609,104.547737121582,20,65533.72456154167,-0.5957489013671875,1.58477783203125,-0.4533843994140625,65533.71949554167,-5.350485573360984,-12.16704984892607,12.8170944478169,65533.70661754167,6.545547485351562,-6.908721923828125,-527.7921752929688,65533.71949554167,-0.8826358941675631,-0.9744029305835259,-0.05332045522013071,-5.351637363433838,-12.17248821258545,12.81448841094971,0.6873205900192261,1.186328887939453,0.2488064169883728,1,-0.2211911678314209,-0.4130889773368835,-0.3660151660442352,0.8040304183959961,-0.8261908292770386,0.05329519137740135,-0.5608639121055603,0,0,0,-1,65533.55384654167,3,2,1561243433.675249,1561243107.271691,28,1.054203,0,0,24.53997,0,0,1561243350.380748,65531.231434,0,-3.435059,74.58001,2650634390,177292352,1,1,0.15,-18.68452,-24.03033,5
1561243433.878882,74,0,0,1561243432.989752,4.602332417857463,-74.06497604220553,2652.396,0,225,4,10,-9999,1561243433.859686,-28.35372161865234,0.1338930130004883,16.2816162109375,91.01464080810547,98.55832672119141,20,65533.74482554167,-1.661087036132812,2.124313354492188,-0.615325927734375,65533.73975954167,-0.849446654981636,-12.4049809217715,14.7363547506043,65533.72672854167,8.227691650390625,-0.2927398681640625,-521.0269775390625,65533.73975954167,-0.8095505485011601,-1.211767820305152,-0.3392496238165046,-0.8505987524986267,-12.41041946411133,14.73374843597412,-0.2132377624511719,1.627654314041138,-0.2740079760551453,1,-0.3486033380031586,-0.461309403181076,-0.2306992411613464,0.7825900912284851,-0.8828774094581604,0.332779586315155,-0.3313387036323547,0,0,0,-1,65533.55384654167,3,2,1561243433.675249,1561243107.271691,28,1.054203,0,0,24.53997,0,0,1561243350.380748,65531.231434,0,-3.435059,74.58001,2650634390,177292352,1,1,0.15,-12.03881,-12.03881,5
1561243433.882208,75,0,0,1561243432.989752,4.602332417857463,-74.06497604220553,2652.396,0,225,4,10,-9999,1561243433.859686,-28.35372161865234,0.1338930130004883,16.2816162109375,91.01464080810547,98.55832672119141,20,65533.76508854167,-2.440582275390625,2.173294067382812,-0.398529052734375,65533.76002354167,2.015717067992875,-9.790594029160408,14.12600936145107,65533.74680854167,14.02352905273438,7.6275634765625,-514.5767211914062,65533.76002354167,-0.7029087820663175,-1.391324200821934,-0.6193666044141389,2.014564990997314,-9.796032905578613,14.12340259552002,-1.312098026275635,1.590531468391418,-0.4190407991409302,1,-0.4297811985015869,-0.4925570785999298,-0.06831806898117065,0.7536633014678955,-0.8011680245399475,0.5805195569992065,-0.1453512907028198,0,0,0,-1,65533.55384654167,3,2,1561243433.675249,1561243107.271691,28,1.054203,0,0,24.53997,0,0,1561243350.380748,65531.231434,0,-3.435059,74.58001,2650634390,177292352,1,1,0.15,-12.03881,-12.03881,5
1561243433.898024,76,0,0,1561243432.989752,4.602332417857463,-74.06497604220553,2652.396,0,225,4,10,-9999,1561243433.88693,-21.58195114135742,7.842659950256348,21.716796875,83.16382598876953,90.70751190185547,20,65533.78535254167,-2.748580932617188,2.284881591796875,-0.0125579833984375,65533.78028654167,2.317158141250073,-5.967513366321442,11.37445156320549,65533.76688954167,22.16477966308594,14.66213989257812,-510.7412719726562,65533.78028654167,-0.5955955063244991,-1.478256934867066,-0.8730078027521821,2.316006183624268,-5.972951412200928,11.37184524536133,-1.975062131881714,1.416337013244629,-0.1638162732124329,1,-0.4778251647949219,-0.4919309914112091,0.07574597001075745,0.7238436341285706,-0.6397755742073059,0.7662649750709534,-0.05937402322888374,0,0,0,-1,65533.55384654167,3,2,1561243433.675249,1561243107.271691,28,1.054203,0,0,24.53997,0,0,1561243350.380748,65531.231434,0,-3.435059,74.58001,2650634390,177292352,1,1,0.15,-11.40898,-12.51013,5
1561243433.918415,77,0,0,1561243432.989752,4.602332417857463,-74.06497604220553,2652.396,0,225,4,10,-9999,1561243433.910263,-6.996068954467773,17.77856826782227,24.9288330078125,75.18911743164062,82.73280334472656,20,65533.80561654167,-3.444564819335938,2.619766235351562,0.555755615234375,65533.80051954167,2.180928663060922,-4.048790223125907,7.416259150886879,65533.78697054167,29.62127685546875,19.28292846679688,-510.0411376953125,65533.80051954167,-0.481937169599346,-1.482202396625035,-1.058502628900959,2.179776668548584,-4.05422830581665,7.413653373718262,-2.54297924041748,1.608800411224365,0.3342635631561279,1,-0.5007728934288025,-0.477013111114502,0.1790349781513214,0.6997367739677429,-0.488255500793457,0.8716225028038025,-0.04337000101804733,0,0,0,-1,65533.55384654167,3,2,1561243433.675249,1561243107.271691,28,1.054203,0,0,24.53997,0,0,1561243350.380748,65531.231434,0,-3.435059,74.58001,2650634390,177292352,1,1,0.15,-11.40898,-13.58496,5
1561243433.956245,78,0,0,1561243432.989752,4.602332417857463,-74.06497604220553,2652.396,0,225,4,10,-9999,1561243433.936723,-2.488903045654297,19.77304077148438,24.65875244140625,165.4226989746094,172.9663848876953,20,65533.82584954167,-3.741592407226562,2.38018798828125,0.714263916015625,65533.82078354167,0.5610670552907326,-0.7341781187841723,3.645480308695979,65533.80708154167,34.96234130859375,21.41790771484375,-510.4349975585938,65533.82078354167,-0.3914953172765654,-1.45397882512635,-1.16830951460332,0.5599149465560913,-0.7396166324615479,3.642874479293823,-3.35052490234375,1.7711181640625,0.7176666259765625,1,-0.5120291113853455,-0.4636798799037933,0.2383080720901489,0.6826686263084412,-0.3890380859375,0.9200897216796875,-0.04565431550145149,0,0,0,-1,65533.55384654167,3,2,1561243433.675249,1561243107.271691,28,1.054203,0,0,24.53997,0,0,1561243350.380748,65531.231434,0,-3.435059,74.58001,2650634390,177292352,1,1,0.15,-11.40898,-15.48226,5
1561243433.958909,79,0,0,1561243432.989752,4.602332417857463,-74.06497604220553,2652.396,0,225,4,10,-9999,1561243433.936723,-2.488903045654297,19.77304077148438,24.65875244140625,165.4226989746094,172.9663848876953,20,65533.84611354167,-3.424148559570312,1.575057983398438,0.308837890625,65533.84104754167,-1.604888783489546,2.693601820287171,-1.693679106865006,65533.82716154167,36.97718811035156,22.11814880371094,-510.5624084472656,65533.84104754167,-0.4108711116368445,-1.452549597063996,-1.1902488861182,-1.606040835380554,2.688163280487061,-1.696285128593445,-3.229141712188721,0.8562370538711548,0.6561989784240723,1,-0.5225094556808472,-0.4528519511222839,0.2381719648838043,0.6820433139801025,-0.3688350915908813,0.9284614324569702,-0.04381795972585678,0,0,0,-1,65533.55384654167,3,2,1561243433.675249,1561243107.271691,28,1.054203,0,0,24.53997,0,0,1561243350.380748,65531.231434,0,-3.435059,74.58001,2650634390,177292352,1,1,0.15,-11.40898,-15.48226,5
1561243433.979132,80,0,0,1561243432.989752,4.602332417857463,-74.06497604220553,2652.396,0,225,4,10,-9999,1561243433.960826,-1.656505584716797,19.83903884887695,24.59637451171875,168.5767974853516,176.1204833984375,20,65533.86637654167,-2.93988037109375,1.484207153320312,-0.0383453369140625,65533.86131054167,-2.292215507112608,6.130288967940393,-6.405424401214224,65533.84724254167,35.05093383789062,20.97251892089844,-510.1917114257812,65533.86131054167,-0.5376997418436849,-1.477885353734383,-1.112075881952312,-2.293367624282837,6.124850749969482,-6.408030033111572,-2.82467246055603,0.608491837978363,0.1267294883728027,1,-0.5280908942222595,-0.4478605091571808,0.175958514213562,0.6996996998786926,-0.4408915638923645,0.8966197967529297,-0.04108194261789322,0,0,0,-1,65533.55384654167,3,2,1561243433.675249,1561243107.271691,28,1.054203,0,0,24.53997,0,0,1561243350.380748,65531.231434,0,-3.435059,74.58001,2650634390,177292352,1,1,0.15,-11.40898,-16.49931,5
1561243433.999311,81,0,0,1561243432.989752,4.602332417857463,-74.06497604220553,2652.396,0,225,4,10,-9999,1561243433.987453,-4.892364501953125,18.56628036499023,24.79071044921875,177.8205108642578,185.3641967773438,20,65533.88664054167,-2.583267211914062,1.507476806640625,-0.070556640625,65533.88157454167,-1.390725624424753,7.928917660727133,-9.411048832717803,65533.86735354167,29.22123718261719,19.30966186523438,-510.3776245117188,65533.88157454167,-0.6493431345406302,-1.428665967258021,-0.9537842542494572,-1.3918776512146,7.923479080200195,-9.413655281066895,-2.138033866882324,0.6811847686767578,0.001286864280700684,1,-0.5143480896949768,-0.4409829676151276,0.07087843120098114,0.7320903539657593,-0.5727663636207581,0.8156108856201172,-0.08196012675762177,0,0,0,-1,65533.55384654167,3,2,1561243433.675249,1561243107.271691,28,1.054203,0,0,24.53997,0,0,1561243350.380748,65531.231434,0,-3.435059,74.58001,2650634390,177292352,1,1,0.15,-11.40898,-16.49931,5
1561243434.031086,82,0,0,1561243432.989752,4.602332417857463,-74.06497604220553,2652.396,0,225,4,10,-9999,1561243434.01217,-18.56362533569336,12.54707431793213,22.25958251953125,188.0271301269531,195.5708160400391,20,65533.90690454167,-2.20855712890625,1.339324951171875,0.0108489990234375,65533.90183854167,-0.3131946684121526,8.123224024388186,-10.98253012454507,65533.88743354167,21.50344848632812,15.80831909179688,-511.7952880859375,65533.90183854167,-0.7377375611090861,-1.329885906074679,-0.7527504989566501,-0.3143467307090759,8.117785453796387,-10.98513603210449,-1.723729372024536,0.7776855230331421,0.1092430353164673,1,-0.4766884744167328,-0.4309366643428802,-0.05235238373279572,0.7644088864326477,-0.7087351679801941,0.6836487054824829,-0.1741233766078949,0,0,0,-1,65533.55384654167,3,2,1561243433.675249,1561243107.271691,28,1.054203,0,0,24.53997,0,0,1561243350.380748,65531.231434,0,-3.435059,74.58001,2650634390,177292352,1,1,0.15,-11.40898,-18.43115,5
1561243434.03956,83,0,0,1561243432.989752,4.602332417857463,-74.06497604220553,2652.396,0,225,4,10,-9999,1561243434.01217,-18.56362533569336,12.54707431793213,22.25958251953125,188.0271301269531,195.5708160400391,20,65533.92716754167,-1.691787719726562,1.066802978515625,-0.1609344482421875,65533.92207154167,0.4250066878308024,6.262572440342373,-11.43294523338799,65533.90751454167,15.035400390625,11.14413452148438,-515.2147827148438,65533.92207154167,-0.8179236352200779,-1.231460812908231,-0.5323460904243242,0.4238546192646027,6.257133960723877,-11.43555164337158,-1.097563624382019,0.7078979015350342,0.23153156042099,1,-0.4186067879199982,-0.4258742928504944,-0.1738036274909973,0.7830656170845032,-0.8124858140945435,0.5075562000274658,-0.286798894405365,0,0,0,-1,65533.55384654167,3,2,1561243433.675249,1561243107.271691,28,1.054203,0,0,24.53997,0,0,1561243350.380748,65531.231434,0,-3.435059,74.58001,2650634390,177292352,1,1,0.15,-11.40898,-18.43115,5
1561243434.059729,84,0,0,1561243433.989738,4.602332417857463,-74.06497604220553,2652.941,0,225,4,10,-9999,1561243434.048337,-24.65303993225098,7.17362117767334,18.92205810546875,94.48427581787109,102.027961730957,20,65533.94738100001,-1.1468505859375,1.065567016601562,-0.407073974609375,65533.942316,1.014829757623884,4.450451907157183,-10.34618908735935,65533.927606,10.56744384765625,5.047897338867188,-518.412353515625,65533.942316,-0.8944568143165976,-1.155299846727029,-0.3205898114217685,1.013677716255188,4.445013523101807,-10.34879493713379,-0.5881353616714478,0.737669050693512,0.1126927137374878,1,-0.3536864519119263,-0.428213357925415,-0.2790709733963013,0.7833636403083801,-0.8683007955551147,0.3151263892650604,-0.3830784261226654,0,0,0,-1,65533.55384654167,3,2,1561243433.675249,1561243107.271691,28,1.054203,0,0,24.53997,0,0,1561243350.380748,65531.231434,0,-3.435059,74.58001,2650634390,177292352,1,1,0.15,-11.40898,-18.40204,5
1561243434.080035,85,0,0,1561243433.989738,4.602332417857463,-74.06497604220553,2652.941,0,225,4,10,-9999,1561243434.048337,-24.65303993225098,7.17362117767334,18.92205810546875,94.48427581787109,102.027961730957,20,65533.967645,-0.5211029052734375,1.06695556640625,-0.5596466064453125,65533.96257900001,2.521471332707098,2.689155939163393,-8.871836476280588,65533.94768700001,8.837356567382812,-0.8083648681640625,-520.7869873046875,65533.96257900001,-0.9491920747850271,-1.09613569483226,-0.1300931586887437,2.520319223403931,2.683717250823975,-8.874443054199219,0.07741224765777588,0.9396551847457886,-0.05424118041992188,1,-0.2869488596916199,-0.4371190369129181,-0.3590971231460571,0.7730696201324463,-0.8819319009780884,0.1297265142202377,-0.4531745910644531,0,0,0,-1,65533.55384654167,3,2,1561243433.675249,1561243107.271691,28,1.054203,0,0,24.53997,0,0,1561243350.380748,65531.231434,0,-3.435059,74.58001,2650634390,177292352,1,1,0.15,-11.40898,-13.28741,5
1561243434.106213,86,0,0,1561243433.989738,4.602332417857463,-74.06497604220553,2652.941,0,225,4,10,-9999,1561243434.089167,-29.48507118225098,-4.374082565307617,13.77471923828125,102.2040176391602,109.7477035522461,20,65533.987909,-0.166107177734375,0.99798583984375,-0.4933319091796875,65533.98284300001,4.266532404379657,1.507908440813766,-7.487930142143091,65533.96779800001,8.628936767578125,-5.531204223632812,-522.05712890625,65533.98284300001,-0.9660899672289304,-1.057081687274519,0.04864988631422905,4.265380382537842,1.502470016479492,-7.490536212921143,0.5470033884048462,1.069809913635254,-0.05239379405975342,1,-0.2155543118715286,-0.4562007784843445,-0.4118402600288391,0.7588180303573608,-0.8698946237564087,-0.04863069951534271,-0.4908343851566315,0,0,0,-1,65533.55384654167,3,2,1561243433.675249,1561243107.271691,28,1.054203,0,0,24.53997,0,0,1561243350.380748,65531.231434,0,-3.435059,74.58001,2650634390,177292352,1,1,0.15,-11.40898,-13.64467,5
1561243434.120812,87,0,0,1561243433.989738,4.602332417857463,-74.06497604220553,2652.941,0,225,4,10,-9999,1561243434.112662,-28.245361328125,-11.63750076293945,12.99603271484375,101.8467025756836,109.3903884887695,20,65534.008172,0.0303497314453125,0.883056640625,-0.2621002197265625,65534.003107,4.760416427483179,2.085439157963368,-6.547211097650042,65533.98787800001,9.549102783203125,-9.048858642578125,-522.2310791015625,65534.003107,-0.9567552737442404,-1.024484395785177,0.2185411565849524,4.759264469146729,2.080000638961792,-6.549817085266113,0.7788101434707642,1.169717073440552,0.1160688400268555,1,-0.1398965567350388,-0.4762749969959259,-0.4463111758232117,0.7445787191390991,-0.8341232538223267,-0.216805711388588,-0.5071821808815002,0,0,0,-1,65533.55384654167,3,2,1561243433.675249,1561243107.271691,28,1.054203,0,0,24.53997,0,0,1561243350.380748,65531.231434,0,-3.435059,74.58001,2650634390,177292352,1,1,0.15,-11.40898,-14.57899,5
1561243434.141219,88,0,0,1561243433.989738,4.602332417857463,-74.06497604220553,2652.941,0,225,4,10,-9999,1561243434.112662,-28.245361328125,-11.63750076293945,12.99603271484375,101.8467025756836,109.3903884887695,20,65534.028436,0.1576080322265625,0.732086181640625,-0.0587005615234375,65534.02334000001,4.362013919993941,3.048454187102561,-5.414329534173453,65534.007959,10.57046508789062,-11.02389526367188,-522.1174926757812,65534.02334000001,-0.9434496584626806,-0.9760279911051389,0.3709766137623658,4.360861778259277,3.043015480041504,-5.416935443878174,0.8561010956764221,1.168647646903992,0.3605184555053711,1,-0.06430494785308838,-0.4845250844955444,-0.4715200662612915,0.7340089678764343,-0.7719336748123169,-0.3625257909297943,-0.5222006440162659,0,0,0,-1,65533.55384654167,3,2,1561243433.675249,1561243107.271691,28,1.054203,0,0,24.53997,0,0,1561243350.380748,65531.231434,0,-3.435059,74.58001,2650634390,177292352,1,1,0.15,-11.40898,-15.43048,5
1561243434.161199,89,0,0,1561243433.989738,4.602332417857463,-74.06497604220553,2652.941,0,225,4,10,-9999,1561243434.144346,-27.31279373168945,-13.52586841583252,12.90667724609375,100.9032211303711,108.446907043457,20,65534.048669,0.2478179931640625,0.6348114013671875,0.109771728515625,65534.04360300001,3.823118213410336,3.534788148515708,-4.144199833390759,65534.02807000001,11.07943725585938,-12.74429321289062,-522.4892578125,65534.04360300001,-0.9318322169386783,-0.9133381758553782,0.4982421923900465,3.821966171264648,3.529349565505981,-4.146805763244629,0.910189151763916,1.164771795272827,0.5687017440795898,1,0.005717699881643057,-0.4812087416648865,-0.4878903329372406,0.7282640933990479,-0.695314884185791,-0.4778821766376495,-0.5368109345436096,0,0,0,-1,65533.55384654167,3,2,1561243433.675249,1561243107.271691,28,1.054203,0,0,24.53997,0,0,1561243350.380748,65531.231434,0,-3.435059,74.58001,2650634390,177292352,1,1,0.15,-11.40898,-15.43048,5
1561243434.181879,90,0,0,1561243433.989738,4.602332417857463,-74.06497604220553,2652.941,0,225,4,10,-9999,1561243434.144346,-27.31279373168945,-13.52586841583252,12.90667724609375,100.9032211303711,108.446907043457,20,65534.068933,0.288177490234375,0.494293212890625,0.2381439208984375,65534.063867,3.174176429526913,3.525065213691938,-2.77841950626456,65534.04815,11.64997863769531,-14.02940368652344,-523.156005859375,65534.063867,-0.9197643909544675,-0.847830816730157,0.5978359580167566,3.173024415969849,3.519626617431641,-2.781025409698486,0.890847384929657,1.127796530723572,0.7254015803337097,1,0.06606142967939377,-0.4713879823684692,-0.4951629936695099,0.7268032431602478,-0.619790256023407,-0.562855064868927,-0.5468584895133972,0,0,0,-1,65533.55384654167,3,2,1561243433.675249,1561243107.271691,28,1.054203,0,0,24.53997,0,0,1561243350.380748,65531.231434,0,-3.435059,74.58001,2650634390,177292352,1,1,0.15,-11.40898,-16.27901,5
1561243434.201557,91,0,0,1561243433.989738,4.602332417857463,-74.06497604220553,2652.941,0,225,4,10,-9999,1561243434.189824,-26.53535461425781,-16.3963565826416,11.5460205078125,99.14945983886719,106.6931457519531,20,65534.089197,0.2914886474609375,0.3751678466796875,0.3558502197265625,65534.084131,2.147552330383395,3.087226883096915,-1.400900764001619,65534.068231,11.53541564941406,-14.86296081542969,-524.0930786132812,65534.084131,-0.9060433187272455,-0.7880511286141347,0.6660268062463213,2.146400213241577,3.081788301467896,-1.403506755828857,0.8522435426712036,1.048485040664673,0.8541610240936279,1,0.1125962138175964,-0.4583313465118408,-0.4947797656059265,0.7296900153160095,-0.5574589371681213,-0.6178668141365051,-0.5545089244842529,0,0,0,-1,65533.55384654167,3,2,1561243433.675249,1561243107.271691,28,1.054203,0,0,24.53997,0,0,1561243350.380748,65531.231434,0,-3.435059,74.58001,2650634390,177292352,1,1,0.15,-11.40898,-17.15711,5
1561243434.221992,92,0,0,1561243433.989738,4.602332417857463,-74.06497604220553,2652.941,0,225,4,10,-9999,1561243434.213924,-27.08694076538086,-16.5672607421875,9.7738037109375,98.23161315917969,105.7752990722656,20,65534.10946000001,0.3039093017578125,0.297088623046875,0.4679412841796875,65534.104394,0.8530168887389962,2.32454894590726,-0.2662444699746007,65534.08831200001,11.12730407714844,-14.89889526367188,-525.239990234375,65534.104394,-0.8937604265257145,-0.7411519104239772,0.6993442643572201,0.851864755153656,2.31911039352417,-0.2688504457473755,0.8115658760070801,0.9747706651687622,0.9694667458534241,1,0.1409409791231155,-0.4448270797729492,-0.4903285503387451,0.7360995411872864,-0.5166592597961426,-0.643716037273407,-0.5645290017127991,0,0,0,-1,65533.55384654167,3,2,1561243433.675249,1561243107.271691,28,1.054203,0,0,24.53997,0,0,1561243350.380748,65531.231434,0,-3.435059,74.58001,2650634390,177292352,1,1,0.15,-11.40898,-18.17334,5
1561243434.242164,93,0,0,1561243433.989738,4.602332417857463,-74.06497604220553,2652.941,0,225,4,10,-9999,1561243434.213924,-27.08694076538086,-16.5672607421875,9.7738037109375,98.23161315917969,105.7752990722656,20,65534.12972400001,0.2611846923828125,0.3020782470703125,0.6421661376953125,65534.124658,-0.8554709916835042,1.829653986853945,0.477323155864864,65534.10842300001,10.85940551757812,-14.65757751464844,-526.0442504882812,65534.124658,-0.8900073783848126,-0.7022328837089272,0.6984504679112241,-0.8566230535507202,1.824215531349182,0.4747171700000763,0.7897943258285522,0.917979896068573,1.135577201843262,1,0.1508841514587402,-0.4300143122673035,-0.4860265851020813,0.7457211017608643,-0.4946740865707397,-0.6430317759513855,-0.5846433043479919,0,0,0,-1,65533.55384654167,3,2,1561243433.675249,1561243107.271691,28,1.054203,0,0,24.53997,0,0,1561243350.380748,65531.231434,0,-3.435059,74.58001,2650634390,177292352,1,1,0.15,-11.40898,-18.46003,5
1561243434.265316,94,0,0,1561243433.989738,4.602332417857463,-74.06497604220553,2652.941,0,225,4,10,-9999,1561243434.243229,-27.28997421264648,-16.67405700683594,8.6300048828125,98.01398468017578,105.5576705932617,20,65534.149988,0.2525177001953125,0.423736572265625,0.773040771484375,65534.144891,-3.359935643985466,1.620886658473761,1.063286506290093,65534.12850300001,10.38868713378906,-14.83053588867188,-527.3528442382812,65534.144891,-0.9078961917579932,-0.6563422007930774,0.6561081361092503,-3.361092329025269,1.615440964698792,1.060681462287903,0.714542031288147,0.9701908826828003,1.343744277954102,1,0.1403144598007202,-0.4079723358154297,-0.4863093197345734,0.7598510384559631,-0.4835239350795746,-0.6100376844406128,-0.6277408599853516,0,0,0,-1,65533.55384654167,3,2,1561243433.675249,1561243107.271691,28,1.054203,0,0,24.53997,0,0,1561243350.380748,65531.231434,0,-3.435059,74.58001,2650634390,177292352,1,1,0.15,-11.40898,-18.91149,5
1561243434.282665,95,0,0,1561243433.989738,4.602332417857463,-74.06497604220553,2652.941,0,225,4,10,-9999,1561243434.264671,-28.01454925537109,-16.73897933959961,7.13934326171875,99.778564453125,107.3222503662109,20,65534.17022100001,0.36822509765625,0.6336669921875,0.8540802001953125,65534.165155,-6.050082012758259,0.7828985203982999,2.096947475981927,65534.14861400001,9.778671264648438,-14.65057373046875,-529.1290893554688,65534.165155,-0.9463727128444986,-0.6080586553256615,0.5609293866024607,-6.051238536834717,0.777452826499939,2.094342470169067,0.778228223323822,1.062033176422119,1.518610119819641,1,0.1039892211556435,-0.376421332359314,-0.4915947318077087,0.7783494591712952,-0.4837335646152496,-0.5319734215736389,-0.6949864625930786,0,0,0,-1,65533.55384654167,3,2,1561243433.675249,1561243107.271691,28,1.054203,0,0,24.53997,0,0,1561243350.380748,65531.231434,0,-3.435059,74.58001,2650634390,177292352,1,1,0.15,-10.91164,-17.66345,5
1561243434.303412,96,0,0,1561243433.989738,4.602332417857463,-74.06497604220553,2652.941,0,225,4,10,-9999,1561243434.29146,-29.72776794433594,-15.98168849945068,2.83319091796875,102.5944747924805,110.1381607055664,20,65534.19048400001,0.70404052734375,0.82000732421875,0.7080841064453125,65534.185419,-8.592778739353289,-1.592264068342025,4.620884363226221,65534.16869500001,8.921859741210938,-14.3062744140625,-531.3822631835938,65534.185419,-0.9809461996099758,-0.5974497311527628,0.4014432876681093,-8.593935012817383,-1.597709774971008,4.618279457092285,1.041357278823853,1.123352289199829,1.584330797195435,1,0.03223749995231628,-0.344150185585022,-0.4929031133651733,0.7984784245491028,-0.5178130865097046,-0.3907472789287567,-0.7610427737236023,0,0,0,-1,65533.55384654167,3,2,1561243433.675249,1561243107.271691,28,1.054203,0,0,24.53997,0,0,1561243350.380748,65531.231434,0,-3.435059,74.58001,2650634390,177292352,1,1,0.15,-10.91164,-18.05224,5
1561243434.324638,97,0,0,1561243433.989738,4.602332417857463,-74.06497604220553,2652.941,0,225,4,10,-9999,1561243434.31535,-31.33898544311523,-13.57353973388672,1.78369140625,103.1431198120117,110.6868057250977,20,65534.210748,0.7973480224609375,1.481979370117188,0.1512603759765625,65534.20568200001,-9.842570411523266,-6.247121844962169,10.0686759838643,65534.188775,7.535369873046875,-12.75950622558594,-533.4478149414062,65534.20568200001,-0.9777648545533892,-0.6735424878942988,0.1618703136559564,-9.843727111816406,-6.252567291259766,10.06607055664062,1.436069846153259,1.195984959602356,1.235281705856323,1,-0.08731351792812347,-0.3266139924526215,-0.4653929173946381,0.8179908990859985,-0.6156047582626343,-0.1611643582582474,-0.7713993191719055,0,0,0,-1,65533.55384654167,3,2,1561243433.675249,1561243107.271691,28,1.054203,0,0,24.53997,0,0,1561243350.380748,65531.231434,0,-3.435059,74.58001,2650634390,177292352,1,1,0.15,-10.91164,-18.05224,5
1561243434.344477,98,0,0,1561243433.989738,4.602332417857463,-74.06497604220553,2652.941,0,225,4,10,-9999,1561243434.341682,-32.65573501586914,-7.161217212677002,4.28173828125,97.38674926757812,104.9304351806641,20,65534.231012,0.2339630126953125,2.634933471679688,-0.2504425048828125,65534.22594600001,-6.676798385764426,-12.37499159736833,16.83148914651611,65534.208887,5.775924682617188,-7.909408569335938,-532.6436767578125,65534.22594600001,-0.8997211717286961,-0.8611066729726902,-0.1553438603158643,-6.677955150604248,-12.38043689727783,16.82888412475586,1.346048474311829,1.908482074737549,0.5522909164428711,1,-0.2444403916597366,-0.3440535366535187,-0.3647994101047516,0.8299382925033569,-0.7494298219680786,0.1547198295593262,-0.6437520980834961,0,0,0,-1,65533.55384654167,3,2,1561243433.675249,1561243107.271691,28,1.054203,0,0,24.53997,0,0,1561243350.380748,65531.231434,0,-3.435059,74.58001,2650634390,177292352,1,1,0.15,-10.91164,-16.46902,5
1561243434.363847,99,0,0,1561243433.989738,4.602332417857463,-74.06497604220553,2652.941,0,225,4,10,-9999,1561243434.341682,-32.65573501586914,-7.161217212677002,4.28173828125,97.38674926757812,104.9304351806641,20,65534.251275,-0.8831939697265625,3.428054809570312,-0.2251129150390625,65534.24621,-1.410914249700317,-15.34453765295239,21.26822177931775,65534.228967,6.141921997070312,1.2689208984375,-526.498779296875,65534.24621,-0.7385347750862455,-1.094461746601092,-0.5267338948869462,-1.412070870399475,-15.34998321533203,21.26561546325684,0.4635365009307861,2.597049236297607,0.1286427974700928,1,-0.3886564970016479,-0.3882774412631989,-0.1712703108787537,0.8178345561027527,-0.7682240605354309,0.502712607383728,-0.3963735103607178,0,0,0,-1,65533.55384654167,3,2,1561243433.675249,1561243107.271691,28,1.054203,0,0,24.53997,0,0,1561243350.380748,65531.231434,0,-3.435059,74.58001,2650634390,177292352,1,1,0.15,-7.650607,-15.14367,5
1561243434.384036,100,0,0,1561243433.989738,4.602332417857463,-74.06497604220553,2652.941,0,225,4,10,-9999,1561243434.365928,-30.30674743652344,2.817044258117676,11.59783935546875,84.3209228515625,91.86460876464844,20,65534.271539,-2.05615234375,3.926971435546875,0.076446533203125,65534.266443,2.60311266645235,-14.817335087767,20.92058125273429,65534.24904800001,13.366943359375,12.81217956542969,-517.818359375,65534.266443,-0.4935709540584233,-1.240243572310631,-0.9259122293615136,2.601955890655518,-14.82278060913086,20.91797637939453,-0.9087311625480652,2.918329238891602,0.0877528190612793,1,-0.4794516265392303,-0.4154237806797028,0.07379184663295746,0.7694829106330872,-0.5685637593269348,0.7991694211959839,-0.1950984448194504,0,0,0,-1,65533.55384654167,3,2,1561243433.675249,1561243107.271691,28,1.054203,0,0,24.53997,0,0,1561243350.380748,65531.231434,0,-3.435059,74.58001,2650634390,177292352,1,1,0.15,-7.650607,-15.59708,5
1561243434.405244,101,0,0,1561243433.989738,4.602332417857463,-74.06497604220553,2652.941,0,225,4,10,-9999,1561243434.392268,-5.769374847412109,20.86609268188477,22.11102294921875,170.0864410400391,177.630126953125,20,65534.291772,-3.015655517578125,3.898162841796875,0.2700042724609375,65534.28670600001,3.937409103171631,-9.565327885194966,14.62829645674212,65534.269159,27.70631408691406,21.69393920898438,-512.841796875,65534.28670600001,-0.039315457179043,-1.09291338486657,-1.244754429332132,3.936252355575562,-9.570773124694824,14.62569046020508,-2.255671501159668,3.080285549163818,0.3460499048233032,1,-0.5062745213508606,-0.4123518168926239,0.2892436981201172,0.6999929547309875,-0.2844133079051971,0.9473175406455994,-0.1473041772842407,0,0,0,-1,65533.55384654167,3,2,1561243433.675249,1561243107.271691,28,1.054203,0,0,24.53997,0,0,1561243350.380748,65531.231434,0,-3.435059,74.58001,2650634390,177292352,1,1,0.15,-7.650607,-16.51778,5
1561243434.428278,102,0,0,1561243433.989738,4.602332417857463,-74.06497604220553,2652.941,0,225,4,10,-9999,1561243434.416662,4.411266326904297,23.1397590637207,21.10382080078125,159.8316497802734,167.3753356933594,20,65534.312036,-3.167373657226562,3.012619018554688,0.375640869140625,65534.30697000001,1.467210279351284,1.61630468981828,4.042376798588777,65534.28923900001,41.121337890625,25.12297058105469,-513.4445190429688,65534.30697000001,0.6091218611089306,-0.5489116906697237,-1.351293804704547,1.466053605079651,1.610858917236328,4.039772033691406,-3.131217479705811,2.592017650604248,0.4888561964035034,1,-0.5108731985092163,-0.3822705745697021,0.3869331479072571,0.6657029390335083,-0.1136097386479378,0.9760059118270874,-0.1857555657625198,0,0,0,-1,65533.55384654167,3,2,1561243433.675249,1561243107.271691,28,1.054203,0,0,24.53997,0,0,1561243350.380748,65531.231434,0,-3.435059,74.58001,2650634390,177292352,1,1,0.15,-7.650607,-10.98713,5
1561243434.444869,103,0,0,1561243433.989738,4.602332417857463,-74.06497604220553,2652.941,0,225,4,10,-9999,1561243434.443437,5.726982116699219,23.3581428527832,20.89013671875,167.0868835449219,174.6305694580078,20,65534.3323,-2.853042602539062,2.307174682617188,0.26446533203125,65534.327234,-1.577587387574599,6.987629232393024,-3.010252206529811,65534.30932000001,45.13858032226562,25.55183410644531,-514.499267578125,65534.327234,0.6070790374826374,-0.4498226324071254,-1.355853545347252,-1.578744053840637,6.982183933258057,-3.01285719871521,-2.925341129302979,1.606156587600708,0.5268216729164124,1,-0.5315133929252625,-0.3485058546066284,0.3604210913181305,0.6827399730682373,-0.09274048358201981,0.9769886136054993,-0.1920743584632874,0,0,0,-1,65533.55384654167,3,2,1561243433.675249,1561243107.271691,28,1.054203,0,0,24.53997,0,0,1561243350.380748,65531.231434,0,-3.435059,74.58001,2650634390,177292352,1,1,0.15,-7.650607,-11.70661,5
1561243434.465137,104,0,0,1561243433.989738,4.602332417857463,-74.06497604220553,2652.941,0,225,4,10,-9999,1561243434.443437,5.726982116699219,23.3581428527832,20.89013671875,167.0868835449219,174.6305694580078,20,65534.352563,-2.231735229492188,1.822433471679688,0.12249755859375,65534.347497,-2.426373312289786,5.453718219327943,-5.740253047331748,65534.32943100001,41.35592651367188,24.79241943359375,-513.5404663085938,65534.347497,0.142921095867762,-0.7720351294845896,-1.3398921432115,-2.42753005027771,5.448272705078125,-5.742857933044434,-2.435397148132324,1.076024413108826,0.3427010178565979,1,-0.5527122020721436,-0.3354426920413971,0.2850386798381805,0.7076300978660583,-0.159649983048439,0.9734598398208618,-0.1639748513698578,0,0,0,-1,65533.55384654167,3,2,1561243433.675249,1561243107.271691,28,1.054203,0,0,24.53997,0,0,1561243350.380748,65531.231434,0,-3.435059,74.58001,2650634390,177292352,1,1,0.15,-7.650607,-12.65744,5
1561243434.501685,105,0,0,1561243433.989738,4.602332417857463,-74.06497604220553,2652.941,0,225,4,10,-9999,1561243434.493456,-8.831979751586914,19.74243545532227,22.58837890625,183.2244567871094,190.7681427001953,20,65534.37282700001,-1.64874267578125,1.544692993164062,0.1123809814453125,65534.36773100001,-1.673422837297754,4.422649038008974,-6.380002398080545,65534.349512,35.91288757324219,24.06062316894531,-512.5750732421875,65534.36773100001,-0.2727259447179084,-1.078465610432454,-1.263429240365071,-1.674579501152039,4.417203426361084,-6.382607460021973,-1.624251842498779,0.6865760087966919,0.2579541206359863,1,-0.5583627223968506,-0.3416522145271301,0.2062695771455765,0.7272947430610657,-0.2666172385215759,0.9531334638595581,-0.1430096626281738,0,0,0,-1,65533.55384654167,3,2,1561243433.675249,1561243107.271691,28,1.054203,0,0,24.53997,0,0,1561243350.380748,65531.231434,0,-3.435059,74.58001,2650634390,177292352,1,1,0.15,-7.650607,-13.68485,5
1561243434.50556,106,0,0,1561243433.989738,4.602332417857463,-74.06497604220553,2652.941,0,225,4,10,-9999,1561243434.493456,-8.831979751586914,19.74243545532227,22.58837890625,183.2244567871094,190.7681427001953,20,65534.39306,-1.304428100585938,1.392257690429688,0.113800048828125,65534.387994,-0.7484377485248926,4.460427309652293,-6.121105323237364,65534.369592,30.77937316894531,22.30508422851562,-512.3563232421875,65534.387994,-0.4891184288307168,-1.189391339906663,-1.158044533951201,-0.749594509601593,4.454981803894043,-6.123710155487061,-1.058356881141663,0.5740918517112732,0.2541847825050354,1,-0.5533161759376526,-0.345232754945755,0.1295851767063141,0.7469024062156677,-0.3723072111606598,0.9160204529762268,-0.1493111103773117,0,0,0,-1,65533.55384654167,3,2,1561243433.675249,1561243107.271691,28,1.054203,0,0,24.53997,0,0,1561243350.380748,65531.231434,0,-3.435059,74.58001,2650634390,177292352,1,1,0.15,-7.650607,-13.68485,5
1561243434.525718,107,0,0,1561243433.989738,4.602332417857463,-74.06497604220553,2652.941,0,225,4,10,-9999,1561243434.517756,-13.77969360351562,17.86466217041016,21.7000732421875,188.9961700439453,196.5398559570312,20,65534.413324,-1.288726806640625,1.063323974609375,0.1658935546875,65534.408258,0.01406282213616342,2.978201861759034,-5.968357055754779,65534.389703,25.6356201171875,20.61820983886719,-513.1044311523438,65534.408258,-0.6009752814889407,-1.212204223383014,-1.046376142723097,0.01290607824921608,2.972756147384644,-5.970962047576904,-0.8153634071350098,0.3704543709754944,0.3320846557617188,1,-0.5383033752441406,-0.3498079180717468,0.06115543842315674,0.7642800807952881,-0.4688620865345001,0.8656144142150879,-0.1757277995347977,0,0,0,-1,65533.55384654167,3,2,1561243433.675249,1561243107.271691,28,1.054203,0,0,24.53997,0,0,1561243350.380748,65531.231434,0,-3.435059,74.58001,2650634390,177292352,1,1,0.15,-7.650607,-14.76948,5
1561243434.545969,108,0,0,1561243433.989738,4.602332417857463,-74.06497604220553,2652.941,0,225,4,10,-9999,1561243434.544655,-17.46087455749512,16.03567123413086,20.7861328125,191.4503631591797,198.9940490722656,20,65534.43358800001,-1.255447387695312,0.781036376953125,0.09613037109375,65534.428522,0.08050309869535124,1.129529442612506,-5.903497365302553,65534.409784,21.75277709960938,18.54942321777344,-514.1329345703125,65534.428522,-0.673402675072351,-1.231648784687811,-0.9327524578578216,0.07934635132551193,1.124083757400513,-5.906102180480957,-0.7184077501296997,0.1021483540534973,0.3393442630767822,1,-0.5168949365615845,-0.3657079339027405,0.004265996627509594,0.773989200592041,-0.5616978406906128,0.8032624125480652,-0.1981546580791473,0,0,0,-1,65533.55384654167,3,2,1561243433.675249,1561243107.271691,28,1.054203,0,0,24.53997,0,0,1561243350.380748,65531.231434,0,-3.435059,74.58001,2650634390,177292352,1,1,0.15,-7.650607,-15.78993,5
1561243434.580832,109,0,0,1561243433.989738,4.602332417857463,-74.06497604220553,2652.941,0,225,4,10,-9999,1561243434.568488,-20.1219482421875,13.457106590271,20.4293212890625,191.6637268066406,199.2074127197266,20,65534.45385100001,-1.14202880859375,0.6584014892578125,-0.0004119873046875,65534.448785,-0.09813029563447671,-0.1391341879900997,-6.016488898767999,65534.42986400001,18.55265808105469,16.1844482421875,-514.4866943359375,65534.448785,-0.7329346878105263,-1.26831907363643,-0.818466727435446,-0.09928704053163528,-0.1445798575878143,-6.019093990325928,-0.5512488484382629,-0.0119897723197937,0.2594354152679443,1,-0.494030773639679,-0.3926254212856293,-0.04471142962574959,0.7744544148445129,-0.6523185968399048,0.7300989627838135,-0.2035577446222305,0,0,0,-1,65533.55384654167,3,2,1561243433.675249,1561243107.271691,28,1.054203,0,0,24.53997,0,0,1561243350.380748,65531.231434,0,-3.435059,74.58001,2650634390,177292352,1,1,0.15,-7.650607,-17.58284,5
1561243434.586563,110,0,0,1561243433.989738,4.602332417857463,-74.06497604220553,2652.941,0,225,4,10,-9999,1561243434.568488,-20.1219482421875,13.457106590271,20.4293212890625,191.6637268066406,199.2074127197266,20,65534.474115,-1.253402709960938,0.5733795166015625,-0.150970458984375,65534.46904900001,-0.5199651586069948,-0.8945997523156024,-6.181023251970839,65534.449975,16.69178771972656,13.84529113769531,-514.5921630859375,65534.46904900001,-0.7877212970845844,-1.318541694428473,-0.7007997725735871,-0.5211219191551208,-0.9000453948974609,-6.183628082275391,-0.4318442344665527,-0.0480579137802124,0.1158307790756226,1,-0.4713442921638489,-0.4271430671215057,-0.09073441475629807,0.766257643699646,-0.7401375770568848,0.6448291540145874,-0.1907667219638824,0,0,0,-1,65533.55384654167,3,2,1561243433.675249,1561243107.271691,28,1.054203,0,0,24.53997,0,0,1561243350.380748,65531.231434,0,-3.435059,74.58001,2650634390,177292352,1,1,0.15,-7.650607,-17.58284,5
1561243434.607247,111,0,0,1561243433.989738,4.602332417857463,-74.06497604220553,2652.941,0,225,4,10,-9999,1561243434.594816,-22.53804779052734,7.634432792663574,21.0086669921875,191.5438537597656,199.0875396728516,20,65534.494379,-1.297409057617188,0.7181854248046875,-0.43341064453125,65534.489282,-0.9178528770575203,-0.009194031031280555,-6.054224826149986,65534.47005600001,15.71443176269531,10.71347045898438,-514.3269653320312,65534.489282,-0.8419351555481781,-1.362598919977333,-0.5838371483314521,-0.9190096259117126,-0.0146397091448307,-6.056829929351807,-0.48441481590271,0.07586097717285156,-0.1322904825210571,1,-0.4505026340484619,-0.4591495990753174,-0.1385605335235596,0.7530139684677124,-0.816335916519165,0.5512295365333557,-0.1724580377340317,0,0,0,-1,65533.55384654167,3,2,1561243433.675249,1561243107.271691,28,1.054203,0,0,24.53997,0,0,1561243350.380748,65531.231434,0,-3.435059,74.58001,2650634390,177292352,1,1,0.15,-7.650607,-18.58958,5
1561243434.627012,112,0,0,1561243433.989738,4.602332417857463,-74.06497604220553,2652.941,0,225,4,10,-9999,1561243434.622317,-23.76420211791992,4.383708477020264,21.29058837890625,97.46318817138672,105.0068740844727,20,65534.51461200001,-1.210983276367188,0.7329254150390625,-0.5687255859375,65534.509546,-0.2500732232034215,1.024310877420675,-6.31755872736924,65534.490137,14.7042236328125,7.159942626953125,-513.7862548828125,65534.509546,-0.8860196945528568,-1.373403805112347,-0.4646835232697113,-0.2512299716472626,1.01886510848999,-6.320163726806641,-0.3822920322418213,0.2973892688751221,-0.3428857326507568,1,-0.4253418147563934,-0.481066882610321,-0.1907050013542175,0.7424894571304321,-0.8766037821769714,0.4481399059295654,-0.1753179877996445,0,0,0,-1,65533.55384654167,3,2,1561243433.675249,1561243107.271691,28,1.054203,0,0,24.53997,0,0,1561243350.380748,65531.231434,0,-3.435059,74.58001,2650634390,177292352,1,1,0.15,-7.650607,-18.58958,5
1561243434.660459,113,0,0,1561243433.989738,4.602332417857463,-74.06497604220553,2652.941,0,225,4,10,-9999,1561243434.645562,-24.49862670898438,0.9936280250549316,20.855224609375,99.11302185058594,106.6567077636719,20,65534.534875,-1.097808837890625,0.6008758544921875,-0.5401153564453125,65534.52980900001,0.767474822945106,1.414884756569516,-6.84034364093841,65534.51024800001,13.94114685058594,4.031204223632812,-513.9719848632812,65534.52980900001,-0.909073470428863,-1.357053712050337,-0.3326023235778359,0.7663180828094482,1.409438967704773,-6.842948436737061,-0.2279243469238281,0.3551214933395386,-0.3590154051780701,1,-0.387548565864563,-0.4995589852333069,-0.2437325119972229,0.7354192733764648,-0.9236869812011719,0.3265038430690765,-0.2004938572645187,0,0,0,-1,65533.55384654167,3,2,1561243433.675249,1561243107.271691,28,1.054203,0,0,24.53997,0,0,1561243350.380748,65531.231434,0,-3.435059,74.58001,2650634390,177292352,1,1,0.15,-7.650607,-20.39884,5
1561243434.667857,114,0,0,1561243433.989738,4.602332417857463,-74.06497604220553,2652.941,0,225,4,10,-9999,1561243434.645562,-24.49862670898438,0.9936280250549316,20.855224609375,99.11302185058594,106.6567077636719,20,65534.555139,-1.016082763671875,0.4100799560546875,-0.4486083984375,65534.55007300001,0.9835093853078978,1.393345109672955,-7.185852040753148,65534.530328,13.23977661132812,0.522857666015625,-514.7431640625,65534.55007300001,-0.9232080839707616,-1.331689603031314,-0.1894607080076207,0.982352614402771,1.387899398803711,-7.188457012176514,-0.09187078475952148,0.31716388463974,-0.2697224617004395,1,-0.3404902517795563,-0.5174629688262939,-0.2963637411594391,0.726957380771637,-0.954164981842041,0.18832927942276,-0.2325969338417053,0,0,0,-1,65533.55384654167,3,2,1561243433.675249,1561243107.271691,28,1.054203,0,0,24.53997,0,0,1561243350.380748,65531.231434,0,-3.435059,74.58001,2650634390,177292352,1,1,0.15,-7.650607,-20.39884,5
1561243434.687981,115,0,0,1561243433.989738,4.602332417857463,-74.06497604220553,2652.941,0,225,4,10,-9999,1561243434.670321,-25.08646202087402,-2.43855094909668,20.4078369140625,100.1829833984375,107.7266693115234,20,65534.575403,-0.9566497802734375,0.3516998291015625,-0.4441680908203125,65534.570337,0.6675926999455751,1.126945643722912,-6.874929048750833,65534.550409,12.63937377929688,-2.519012451171875,-515.110595703125,65534.570337,-0.9423439507282335,-1.309085984628099,-0.04575138759184619,0.6664359569549561,1.1214998960495,-6.877533912658691,-0.04536151885986328,0.2995557188987732,-0.1767946481704712,1,-0.2924483418464661,-0.5340812802314758,-0.3476129770278931,0.7130192518234253,-0.9649381637573242,0.0457354299724102,-0.2584623098373413,0,0,0,-1,65533.55384654167,3,2,1561243433.675249,1561243107.271691,28,1.054203,0,0,24.53997,0,0,1561243350.380748,65531.231434,0,-3.435059,74.58001,2650634390,177292352,1,1,0.15,-7.650607,-18.30709,5
1561243434.708147,116,0,0,1561243433.989738,4.602332417857463,-74.06497604220553,2652.941,0,225,4,10,-9999,1561243434.696206,-24.85672760009766,-8.941280364990234,19.35284423828125,101.7896118164062,109.3332977294922,20,65534.595666,-0.8536834716796875,0.367095947265625,-0.367218017578125,65534.5906,0.6462416048541919,1.230620907063042,-5.986577871300883,65534.57052,13.32821655273438,-6.056777954101562,-515.568359375,65534.5906,-0.9659367994056419,-1.284590763635254,0.08328611028853795,0.6450848579406738,1.225175142288208,-5.989182949066162,0.05322575569152832,0.458891749382019,-0.134451150894165,1,-0.2484346181154251,-0.5455386638641357,-0.3936273753643036,0.696940004825592,-0.9559967517852783,-0.08318985998630524,-0.2813356220722198,0,0,0,-1,65533.55384654167,3,2,1561243433.675249,1561243107.271691,28,1.054203,0,0,24.53997,0,0,1561243350.380748,65532.171845,0,-3.493164,74.58054,2650634390,177292352,1,1,0.15,-7.650607,-19.05346,5
1561243434.74183,117,0,0,1561243433.989738,4.602332417857463,-74.06497604220553,2652.941,0,225,4,10,-9999,1561243434.720469,-24.07700347900391,-11.61535263061523,18.9971923828125,103.1737365722656,110.7174224853516,20,65534.61593000001,-0.8345184326171875,0.2972869873046875,-0.3626556396484375,65534.61083400001,1.014183674743431,0.8208741322783938,-5.024466719035663,65534.5906,13.83389282226562,-8.750839233398438,-516.076416015625,65534.61083400001,-0.9832622610542526,-1.261042873296088,0.1945553072929827,1.01302695274353,0.8154284954071045,-5.027071475982666,0.0894848108291626,0.5487380027770996,-0.07643061876296997,1,-0.2078393548727036,-0.5543161034584045,-0.4299727380275726,0.6816595792770386,-0.9344402551651001,-0.1933302581310272,-0.2990729212760925,0,0,0,-1,65533.55384654167,3,2,1561243433.675249,1561243107.271691,28,1.054203,0,0,24.53997,0,0,1561243350.380748,65532.171845,0,-3.493164,74.58054,2650634390,177292352,1,1,0.15,-7.650607,-19.57952,5
1561243434.755488,118,0,0,1561243433.989738,4.602332417857463,-74.06497604220553,2652.941,0,225,4,10,-9999,1561243434.747379,-23.42541885375977,-13.81595611572266,18.91387939453125,103.7255477905273,111.2692337036133,20,65534.636163,-0.6951751708984375,0.061492919921875,-0.32928466796875,65534.631097,1.185543443504034,0.104023338494604,-4.382306142235909,65534.61068100001,14.46678161621094,-11.33061218261719,-516.252685546875,65534.631097,-0.9907813356798673,-1.250122427754496,0.2917513567078751,1.184386730194092,0.09857766330242157,-4.384911060333252,0.1357103586196899,0.471193253993988,-0.04284048080444336,1,-0.1715052127838135,-0.565369725227356,-0.4562316238880157,0.6654289960861206,-0.9089190363883972,-0.287630021572113,-0.3018860816955566,0,0,0,-1,65533.55384654167,3,2,1561243433.675249,1561243107.271691,28,1.054203,0,0,24.53997,0,0,1561243350.380748,65532.171845,0,-3.493164,74.58054,2650634390,177292352,1,1,0.15,-7.650607,-20.52215,5
1561243434.769309,119,0,0,1561243433.989738,4.602332417857463,-74.06497604220553,2652.941,0,225,4,10,-9999,1561243434.747379,-23.42541885375977,-13.81595611572266,18.91387939453125,103.7255477905273,111.2692337036133,20,65534.656427,-0.635406494140625,-0.1817626953125,-0.2974090576171875,65534.651361,0.8185372084218493,-0.658981634876913,-4.015752910855147,65534.630792,15.83511352539062,-12.81475830078125,-515.7669677734375,65534.651361,-0.9980308366779838,-1.253870932370805,0.3790247301072071,0.817380428314209,-0.6644272804260254,-4.018357753753662,0.2302928566932678,0.2857250571250916,-0.0285874605178833,1,-0.1417768150568008,-0.5789088606834412,-0.4776533246040344,0.6454542279243469,-0.8827586770057678,-0.3700146079063416,-0.2895277440547943,0,0,0,-1,65533.55384654167,3,2,1561243433.675249,1561243107.271691,28,1.054203,0,0,24.53997,0,0,1561243350.380748,65532.171845,0,-3.493164,74.58054,2650634390,177292352,1,1,0.15,-7.650607,-21.52792,5
1561243434.789145,120,0,0,1561243433.989738,4.602332417857463,-74.06497604220553,2652.941,0,225,4,10,-9999,1561243434.771049,-22.01750183105469,-15.25615978240967,19.27435302734375,104.3792572021484,111.9229431152344,20,65534.676691,-0.6842803955078125,-0.19287109375,-0.307525634765625,65534.671625,0.2235140502842793,-0.525586825352043,-3.643478676820676,65534.65087300001,17.25009155273438,-14.19619750976562,-515.31103515625,65534.671625,-1.013486469401525,-1.261909141463961,0.4565093027754457,0.222357302904129,-0.5310325026512146,-3.64608359336853,0.2057932019233704,0.2367923259735107,-0.02130591869354248,1,-0.1191292926669121,-0.5910787582397461,-0.4984340369701385,0.6228945851325989,-0.8551157116889954,-0.4408175647258759,-0.2728682160377502,0,0,0,-1,65533.55384654167,3,2,1561243433.675249,1561243107.271691,28,1.054203,0,0,24.53997,0,0,1561243350.380748,65532.171845,0,-3.493164,74.58054,2650634390,177292352,1,1,0.15,-7.650607,-21.52792,5
1561243434.822463,121,0,0,1561243433.989738,4.602332417857463,-74.06497604220553,2652.941,0,225,4,10,-9999,1561243434.797549,-19.065673828125,-17.81110382080078,20.21954345703125,105.7676086425781,113.3112945556641,20,65534.69695400001,-0.7023468017578125,-0.1856842041015625,-0.3663177490234375,65534.691888,0.04149737610561469,0.5160822697376592,-2.618275374118716,65534.670984,18.83146667480469,-15.49537658691406,-515.0751953125,65534.691888,-1.034115894033026,-1.25238090520646,0.5181819715472561,0.04034063220024109,0.5106366276741028,-2.620880365371704,0.1170754432678223,0.3277448415756226,-0.05185848474502563,1,-0.09958095103502274,-0.5950645804405212,-0.5176883339881897,0.6066139340400696,-0.8250527381896973,-0.4953016042709351,-0.2719635665416718,0,0,0,-1,65533.55384654167,3,2,1561243433.675249,1561243107.271691,28,1.054203,0,0,24.53997,0,0,1561243350.380748,65532.171845,0,-3.493164,74.58054,2650634390,177292352,1,1,0.15,-7.650607,-22.97262,5
1561243434.829642,122,0,0,1561243433.989738,4.602332417857463,-74.06497604220553,2652.941,0,225,4,10,-9999,1561243434.824536,-18.25035285949707,-18.93787384033203,20.2430419921875,106.7277526855469,114.2714385986328,20,65534.71721800001,-0.575103759765625,-0.380462646484375,-0.385223388671875,65534.71215200001,0.6075314931454542,0.9206161730045865,-1.737463073082562,65534.69106400001,19.68309020996094,-16.84147644042969,-515.006591796875,65534.71215200001,-1.044096588803392,-1.231064512448845,0.5610020799759066,0.6063747406005859,0.9151704907417297,-1.740068197250366,0.1616847515106201,0.2691413164138794,-0.1058740615844727,1,-0.08074694126844406,-0.5936341285705566,-0.5297767519950867,0.6003457903862,-0.7983272075653076,-0.5320349335670471,-0.28215691447258,0,0,0,-1,65533.55384654167,3,2,1561243433.675249,1561243107.271691,28,1.054203,0,0,24.53997,0,0,1561243350.380748,65532.171845,0,-3.493164,74.58054,2650634390,177292352,1,1,0.15,-7.650607,-22.97262,5
